PE UV       SUBTECH     SPECTRUM    ASCII       PEDS        4.00        
   -1
Sample3.Sample.Raw.asc
20/12/09
14:46:15.00
20/12/09
14:46:15.00
Administrator

300.000000
1
Lambda 850
850L1710193
PerkinElmer UV WinLab 6.4.0.973 / 2.02.06 Lambda 800 UV/VIS, Jan 28 2016 16:58:34

0
0
2
0
0
UV/VIS
1
1
1
RBeamAtt,SBeamAtt,60mm sphere
0
0
0
0
Fix
 
0
0.2
0
0
0
 
 
 
0
 
0
319.2
0
Front
100
 
S:100 R:100
 
0
0
0
 
0
 
 
 
0
 
 
0
0
0
0
0
 
 
 
 
0
0


0
0
#HDR
-1
-1
#GR
nm
%T
1.0
0.0
750.000000
-1.500000
301
8
74.364544
-0.017007
#DATA
750.000000	73.911433
748.500000	74.364544
747.000000	74.359645
745.500000	74.186515
744.000000	74.243934
742.500000	74.227349
741.000000	74.276711
739.500000	74.279151
738.000000	74.290027
736.500000	74.128676
735.000000	74.179922
733.500000	74.090214
732.000000	74.129865
730.500000	74.124206
729.000000	74.092137
727.500000	74.135175
726.000000	74.202005
724.500000	74.138272
723.000000	74.073552
721.500000	74.130554
720.000000	74.084390
718.500000	73.995443
717.000000	74.093518
715.500000	73.973827
714.000000	74.040146
712.500000	73.897515
711.000000	74.071726
709.500000	73.937087
708.000000	73.854116
706.500000	73.943731
705.000000	73.975776
703.500000	73.931326
702.000000	73.853343
700.500000	73.853842
699.000000	73.869812
697.500000	73.891789
696.000000	73.840851
694.500000	73.835576
693.000000	73.791482
691.500000	73.824727
690.000000	73.710112
688.500000	73.935005
687.000000	73.853832
685.500000	73.765428
684.000000	73.784877
682.500000	73.842085
681.000000	73.941982
679.500000	73.841530
678.000000	73.871006
676.500000	73.825088
675.000000	73.823608
673.500000	73.857784
672.000000	73.780989
670.500000	73.864796
669.000000	73.850099
667.500000	73.760191
666.000000	73.761551
664.500000	73.753572
663.000000	73.787226
661.500000	73.727998
660.000000	73.697795
658.500000	73.754838
657.000000	73.718605
655.500000	73.750086
654.000000	73.707668
652.500000	73.674891
651.000000	73.657098
649.500000	73.678864
648.000000	73.711942
646.500000	73.756517
645.000000	73.737687
643.500000	73.673379
642.000000	73.644090
640.500000	73.619883
639.000000	73.588668
637.500000	73.554607
636.000000	73.524087
634.500000	73.519200
633.000000	73.563945
631.500000	73.530304
630.000000	73.518037
628.500000	73.494737
627.000000	73.517237
625.500000	73.502530
624.000000	73.462006
622.500000	73.430881
621.000000	73.429386
619.500000	73.402894
618.000000	73.404293
616.500000	73.346937
615.000000	73.319598
613.500000	73.360213
612.000000	73.302857
610.500000	73.266704
609.000000	73.299073
607.500000	73.283690
606.000000	73.225550
604.500000	73.158736
603.000000	73.142196
601.500000	73.138533
600.000000	73.128314
598.500000	73.101892
597.000000	73.056298
595.500000	73.045369
594.000000	73.021074
592.500000	73.048108
591.000000	73.033194
589.500000	72.987594
588.000000	72.967715
586.500000	72.905087
585.000000	72.870875
583.500000	72.863433
582.000000	72.847118
580.500000	72.866902
579.000000	72.836029
577.500000	72.778892
576.000000	72.750333
574.500000	72.711315
573.000000	72.675561
571.500000	72.659958
570.000000	72.639516
568.500000	72.570476
567.000000	72.510263
565.500000	72.498926
564.000000	72.459209
562.500000	72.418320
561.000000	72.521175
559.500000	72.654976
558.000000	72.606701
556.500000	72.565323
555.000000	72.581216
553.500000	72.532069
552.000000	72.516852
550.500000	72.500797
549.000000	72.477944
547.500000	72.474824
546.000000	72.413819
544.500000	72.414184
543.000000	72.420219
541.500000	72.401651
540.000000	72.355271
538.500000	72.310128
537.000000	72.339040
535.500000	72.325361
534.000000	72.297107
532.500000	72.278239
531.000000	72.283617
529.500000	72.249959
528.000000	72.188254
526.500000	72.182437
525.000000	72.147679
523.500000	72.086150
522.000000	72.027931
520.500000	71.936479
519.000000	71.837059
517.500000	71.700258
516.000000	71.510394
514.500000	71.296765
513.000000	71.074130
511.500000	70.858044
510.000000	70.622877
508.500000	70.385253
507.000000	70.162023
505.500000	69.993066
504.000000	69.863075
502.500000	69.819159
501.000000	69.801326
499.500000	69.862359
498.000000	69.937258
496.500000	70.040315
495.000000	70.182049
493.500000	70.317423
492.000000	70.455709
490.500000	70.629994
489.000000	70.705321
487.500000	70.810652
486.000000	71.002323
484.500000	71.137536
483.000000	71.413547
481.500000	71.703233
480.000000	71.747941
478.500000	71.477661
477.000000	71.178332
475.500000	71.009726
474.000000	70.924813
472.500000	70.763255
471.000000	70.558257
469.500000	70.346610
468.000000	70.130176
466.500000	69.823724
465.000000	69.543725
463.500000	69.318320
462.000000	69.123712
460.500000	68.994110
459.000000	68.900741
457.500000	68.860455
456.000000	68.859938
454.500000	68.825735
453.000000	68.869600
451.500000	68.939750
450.000000	68.961578
448.500000	68.956401
447.000000	68.933356
445.500000	68.942957
444.000000	69.242166
442.500000	69.342320
441.000000	69.334163
439.500000	69.198604
438.000000	69.106887
436.500000	68.979023
435.000000	68.927995
433.500000	68.912631
432.000000	68.868811
430.500000	68.732315
429.000000	68.678799
427.500000	68.577530
426.000000	68.482572
424.500000	68.337661
423.000000	68.302130
421.500000	68.254698
420.000000	68.111450
418.500000	68.049527
417.000000	67.985929
415.500000	67.904686
414.000000	67.743401
412.500000	67.679513
411.000000	67.602147
409.500000	67.433959
408.000000	67.353874
406.500000	67.225150
405.000000	67.150673
403.500000	66.968738
402.000000	66.928419
400.500000	66.854545
399.000000	66.633349
397.500000	66.507520
396.000000	66.372010
394.500000	66.185672
393.000000	65.957345
391.500000	65.823339
390.000000	65.569613
388.500000	65.495147
387.000000	65.265370
385.500000	64.864981
384.000000	64.527587
382.500000	64.092539
381.000000	63.559394
379.500000	63.020856
378.000000	62.407649
376.500000	62.337638
375.000000	61.882869
373.500000	60.320798
372.000000	58.647709
370.500000	56.463076
369.000000	53.940072
367.500000	51.109187
366.000000	47.712855
364.500000	43.733549
363.000000	39.335037
361.500000	34.337374
360.000000	29.058671
358.500000	23.611248
357.000000	18.132774
355.500000	13.259107
354.000000	8.988897
352.500000	5.655843
351.000000	3.291849
349.500000	1.758063
348.000000	0.858209
346.500000	0.385703
345.000000	0.162014
343.500000	0.073498
342.000000	0.034857
340.500000	0.018757
339.000000	0.025933
337.500000	0.030200
336.000000	0.016670
334.500000	0.017857
333.000000	0.020198
331.500000	0.024512
330.000000	0.025791
328.500000	0.033845
327.000000	0.041138
325.500000	0.035942
324.000000	0.032591
322.500000	0.033541
321.000000	0.024340
319.500000	0.023955
318.000000	0.011999
316.500000	-0.013863
315.000000	-0.016795
313.500000	-0.014279
312.000000	-0.017007
310.500000	-0.014764
309.000000	-0.016207
307.500000	-0.005509
306.000000	0.004472
304.500000	-0.002575
303.000000	0.009163
301.500000	-0.004106
300.000000	-0.007933
