PE UV       SUBTECH     SPECTRUM    ASCII       PEDS        4.00        
   -1
Sample1.Sample.Raw.asc
20/12/09
14:19:54.00
20/12/09
14:19:54.00
Administrator

300.000000
1
Lambda 850
850L1710193
PerkinElmer UV WinLab 6.4.0.973 / 2.02.06 Lambda 800 UV/VIS, Jan 28 2016 16:58:34

0
0
2
0
0
UV/VIS
1
1
1
RBeamAtt,SBeamAtt,60mm sphere
0
0
0
0
Fix
 
0
0.2
0
0
0
 
 
 
0
 
0
319.2
0
Front
100
 
S:100 R:100
 
0
0
0
 
0
 
 
 
0
 
 
0
0
0
0
0
 
 
 
 
0
0


0
0
#HDR
-1
-1
#GR
nm
%T
1.0
0.0
750.000000
-1.500000
301
8
74.152928
-0.017210
#DATA
750.000000	73.659980
748.500000	74.152928
747.000000	74.066338
745.500000	73.975446
744.000000	73.994532
742.500000	73.969488
741.000000	73.981545
739.500000	73.961353
738.000000	74.057607
736.500000	73.864990
735.000000	73.960915
733.500000	73.816977
732.000000	74.011445
730.500000	74.040880
729.000000	73.906689
727.500000	73.852615
726.000000	73.878506
724.500000	73.865472
723.000000	73.825087
721.500000	73.963110
720.000000	73.857628
718.500000	73.746155
717.000000	73.889178
715.500000	73.812878
714.000000	73.810951
712.500000	73.728445
711.000000	73.730990
709.500000	73.711815
708.000000	73.716726
706.500000	73.610568
705.000000	73.777855
703.500000	73.752723
702.000000	73.747927
700.500000	73.686072
699.000000	73.650961
697.500000	73.623132
696.000000	73.601680
694.500000	73.637814
693.000000	73.642914
691.500000	73.585715
690.000000	73.438341
688.500000	73.634692
687.000000	73.591935
685.500000	73.555042
684.000000	73.585109
682.500000	73.690436
681.000000	73.671722
679.500000	73.593085
678.000000	73.598168
676.500000	73.549567
675.000000	73.599494
673.500000	73.596442
672.000000	73.525226
670.500000	73.607392
669.000000	73.570821
667.500000	73.450249
666.000000	73.502907
664.500000	73.494332
663.000000	73.487694
661.500000	73.466851
660.000000	73.446609
658.500000	73.462213
657.000000	73.502366
655.500000	73.573981
654.000000	73.484001
652.500000	73.419445
651.000000	73.415001
649.500000	73.414402
648.000000	73.456093
646.500000	73.439080
645.000000	73.433186
643.500000	73.375963
642.000000	73.365786
640.500000	73.375853
639.000000	73.310280
637.500000	73.308906
636.000000	73.285225
634.500000	73.308121
633.000000	73.313808
631.500000	73.282127
630.000000	73.190539
628.500000	73.154775
627.000000	73.225069
625.500000	73.209174
624.000000	73.174569
622.500000	73.164263
621.000000	73.150482
619.500000	73.118750
618.000000	73.117027
616.500000	73.087435
615.000000	73.052163
613.500000	73.082203
612.000000	73.050289
610.500000	73.004098
609.000000	73.012985
607.500000	73.009395
606.000000	72.969795
604.500000	72.910884
603.000000	72.904378
601.500000	72.876992
600.000000	72.867969
598.500000	72.862365
597.000000	72.800386
595.500000	72.764226
594.000000	72.739834
592.500000	72.767426
591.000000	72.724208
589.500000	72.678056
588.000000	72.708647
586.500000	72.646314
585.000000	72.591996
583.500000	72.606463
582.000000	72.598928
580.500000	72.600505
579.000000	72.555877
577.500000	72.539341
576.000000	72.492364
574.500000	72.436001
573.000000	72.417725
571.500000	72.404496
570.000000	72.419385
568.500000	72.361836
567.000000	72.298131
565.500000	72.242395
564.000000	72.156285
562.500000	72.163808
561.000000	72.304503
559.500000	72.418625
558.000000	72.360790
556.500000	72.355492
555.000000	72.350810
553.500000	72.286229
552.000000	72.276122
550.500000	72.276558
549.000000	72.275635
547.500000	72.239119
546.000000	72.186294
544.500000	72.156508
543.000000	72.162457
541.500000	72.142694
540.000000	72.104482
538.500000	72.073913
537.000000	72.084917
535.500000	72.089105
534.000000	72.068808
532.500000	72.029353
531.000000	72.023991
529.500000	71.988194
528.000000	71.930282
526.500000	71.921467
525.000000	71.902144
523.500000	71.833007
522.000000	71.763401
520.500000	71.660001
519.000000	71.568634
517.500000	71.441267
516.000000	71.256130
514.500000	71.050069
513.000000	70.829501
511.500000	70.610775
510.000000	70.382410
508.500000	70.138681
507.000000	69.880208
505.500000	69.737153
504.000000	69.642268
502.500000	69.554044
501.000000	69.538424
499.500000	69.620459
498.000000	69.671599
496.500000	69.774484
495.000000	69.895951
493.500000	70.011318
492.000000	70.174383
490.500000	70.308262
489.000000	70.448227
487.500000	70.620217
486.000000	70.729245
484.500000	70.854213
483.000000	71.116527
481.500000	71.420395
480.000000	71.480322
478.500000	71.206649
477.000000	70.904352
475.500000	70.698248
474.000000	70.586900
472.500000	70.457732
471.000000	70.254500
469.500000	70.063349
468.000000	69.831663
466.500000	69.556957
465.000000	69.271834
463.500000	69.052860
462.000000	68.854945
460.500000	68.720994
459.000000	68.615535
457.500000	68.571946
456.000000	68.590742
454.500000	68.585907
453.000000	68.646616
451.500000	68.691173
450.000000	68.703300
448.500000	68.690760
447.000000	68.704082
445.500000	68.687854
444.000000	68.938118
442.500000	69.084592
441.000000	69.013087
439.500000	68.970525
438.000000	68.830623
436.500000	68.762242
435.000000	68.706011
433.500000	68.656438
432.000000	68.645783
430.500000	68.506219
429.000000	68.492580
427.500000	68.359939
426.000000	68.250119
424.500000	68.192714
423.000000	68.159150
421.500000	68.058518
420.000000	67.934294
418.500000	67.884606
417.000000	67.848911
415.500000	67.756281
414.000000	67.636995
412.500000	67.542170
411.000000	67.498452
409.500000	67.301911
408.000000	67.264182
406.500000	67.069433
405.000000	66.952001
403.500000	66.950829
402.000000	66.866800
400.500000	66.745551
399.000000	66.553686
397.500000	66.445582
396.000000	66.320818
394.500000	66.107024
393.000000	65.919675
391.500000	65.771878
390.000000	65.603510
388.500000	65.434994
387.000000	65.183078
385.500000	64.852681
384.000000	64.525158
382.500000	64.142390
381.000000	63.606046
379.500000	63.060540
378.000000	62.471040
376.500000	62.565107
375.000000	62.084870
373.500000	60.632157
372.000000	58.745279
370.500000	56.811386
369.000000	54.356792
367.500000	51.516884
366.000000	48.277008
364.500000	44.341873
363.000000	40.014325
361.500000	35.075846
360.000000	29.770104
358.500000	24.265287
357.000000	18.833595
355.500000	13.800484
354.000000	9.422324
352.500000	5.974473
351.000000	3.521122
349.500000	1.905599
348.000000	0.963647
346.500000	0.447922
345.000000	0.171452
343.500000	0.075352
342.000000	0.033745
340.500000	0.023865
339.000000	0.022680
337.500000	0.024625
336.000000	0.024027
334.500000	0.019066
333.000000	0.016568
331.500000	0.029544
330.000000	0.018156
328.500000	0.022657
327.000000	0.024067
325.500000	0.007095
324.000000	0.022039
322.500000	0.021582
321.000000	0.025744
319.500000	0.027324
318.000000	0.016062
316.500000	-0.010657
315.000000	-0.012077
313.500000	-0.017210
312.000000	-0.013228
310.500000	-0.016373
309.000000	-0.012511
307.500000	-0.008549
306.000000	-0.001998
304.500000	0.005532
303.000000	0.003054
301.500000	-0.002674
300.000000	-0.003728
