PE UV       SUBTECH     SPECTRUM    ASCII       PEDS        4.00        
   -1
Sample2.Sample.Raw.asc
20/12/09
14:44:01.00
20/12/09
14:44:01.00
Administrator

300.000000
1
Lambda 850
850L1710193
PerkinElmer UV WinLab 6.4.0.973 / 2.02.06 Lambda 800 UV/VIS, Jan 28 2016 16:58:34

0
0
2
0
0
UV/VIS
1
1
1
RBeamAtt,SBeamAtt,60mm sphere
0
0
0
0
Fix
 
0
0.2
0
0
0
 
 
 
0
 
0
319.2
0
Front
100
 
S:100 R:100
 
0
0
0
 
0
 
 
 
0
 
 
0
0
0
0
0
 
 
 
 
0
0


0
0
#HDR
-1
-1
#GR
nm
%T
1.0
0.0
750.000000
-1.500000
301
8
75.471865
-0.046117
#DATA
750.000000	75.051202
748.500000	75.278739
747.000000	75.471865
745.500000	75.337143
744.000000	75.356844
742.500000	75.355806
741.000000	75.287721
739.500000	75.279869
738.000000	75.403627
736.500000	75.240393
735.000000	75.243752
733.500000	75.137024
732.000000	75.154979
730.500000	75.073744
729.000000	75.082740
727.500000	75.060714
726.000000	75.011446
724.500000	75.053961
723.000000	74.939513
721.500000	75.027533
720.000000	74.817596
718.500000	74.906374
717.000000	74.827328
715.500000	74.818075
714.000000	74.794116
712.500000	74.683025
711.000000	74.747229
709.500000	74.620666
708.000000	74.686134
706.500000	74.711518
705.000000	74.787032
703.500000	74.839249
702.000000	74.594773
700.500000	74.722165
699.000000	74.711059
697.500000	74.620078
696.000000	74.582271
694.500000	74.740791
693.000000	74.662076
691.500000	74.708186
690.000000	74.648272
688.500000	74.788233
687.000000	74.721786
685.500000	74.683148
684.000000	74.726550
682.500000	74.721237
681.000000	74.749062
679.500000	74.702947
678.000000	74.731869
676.500000	74.678627
675.000000	74.698253
673.500000	74.767703
672.000000	74.659585
670.500000	74.755656
669.000000	74.735468
667.500000	74.649937
666.000000	74.709200
664.500000	74.696180
663.000000	74.718370
661.500000	74.660138
660.000000	74.741356
658.500000	74.722340
657.000000	74.741329
655.500000	74.741517
654.000000	74.722706
652.500000	74.722585
651.000000	74.726320
649.500000	74.705193
648.000000	74.826757
646.500000	74.806052
645.000000	74.771501
643.500000	74.772662
642.000000	74.730206
640.500000	74.733513
639.000000	74.709489
637.500000	74.685377
636.000000	74.673702
634.500000	74.688732
633.000000	74.673938
631.500000	74.657765
630.000000	74.598458
628.500000	74.579903
627.000000	74.692528
625.500000	74.658827
624.000000	74.653525
622.500000	74.618707
621.000000	74.620479
619.500000	74.564704
618.000000	74.600613
616.500000	74.561946
615.000000	74.507828
613.500000	74.538816
612.000000	74.504876
610.500000	74.498790
609.000000	74.497152
607.500000	74.467472
606.000000	74.442477
604.500000	74.389225
603.000000	74.377393
601.500000	74.417844
600.000000	74.377209
598.500000	74.359887
597.000000	74.358626
595.500000	74.312085
594.000000	74.261279
592.500000	74.280324
591.000000	74.291506
589.500000	74.278754
588.000000	74.268444
586.500000	74.192327
585.000000	74.126660
583.500000	74.124268
582.000000	74.109432
580.500000	74.137007
579.000000	74.125291
577.500000	74.075881
576.000000	74.018892
574.500000	73.965752
573.000000	73.953316
571.500000	73.955650
570.000000	73.941252
568.500000	73.878040
567.000000	73.863454
565.500000	73.831844
564.000000	73.750275
562.500000	73.718010
561.000000	73.828737
559.500000	73.957641
558.000000	73.962811
556.500000	73.989572
555.000000	73.997785
553.500000	73.935407
552.000000	73.938869
550.500000	73.959965
549.000000	73.970578
547.500000	73.986404
546.000000	73.929796
544.500000	73.928687
543.000000	73.968949
541.500000	73.981480
540.000000	73.970619
538.500000	73.961975
537.000000	74.004092
535.500000	74.005830
534.000000	74.036604
532.500000	74.039573
531.000000	74.053615
529.500000	74.080821
528.000000	74.065112
526.500000	74.056035
525.000000	74.064142
523.500000	74.013180
522.000000	73.954228
520.500000	73.890894
519.000000	73.821974
517.500000	73.707018
516.000000	73.537380
514.500000	73.348807
513.000000	73.120576
511.500000	72.876310
510.000000	72.626075
508.500000	72.359410
507.000000	72.104578
505.500000	71.908726
504.000000	71.785378
502.500000	71.676295
501.000000	71.589497
499.500000	71.601037
498.000000	71.598765
496.500000	71.665375
495.000000	71.718600
493.500000	71.795727
492.000000	71.935192
490.500000	72.087704
489.000000	72.166332
487.500000	72.311186
486.000000	72.464838
484.500000	72.654106
483.000000	73.006160
481.500000	73.469655
480.000000	73.607015
478.500000	73.414408
477.000000	73.217644
475.500000	73.069168
474.000000	72.991327
472.500000	72.869672
471.000000	72.705900
469.500000	72.525062
468.000000	72.312823
466.500000	72.051945
465.000000	71.764562
463.500000	71.502127
462.000000	71.280857
460.500000	71.119610
459.000000	70.982656
457.500000	70.933781
456.000000	70.897326
454.500000	70.837870
453.000000	70.858387
451.500000	70.876793
450.000000	70.876052
448.500000	70.831137
447.000000	70.795708
445.500000	70.759200
444.000000	71.043091
442.500000	71.257694
441.000000	71.154723
439.500000	71.110137
438.000000	71.023205
436.500000	70.941260
435.000000	70.880047
433.500000	70.857369
432.000000	70.864739
430.500000	70.770729
429.000000	70.716217
427.500000	70.635087
426.000000	70.527885
424.500000	70.458474
423.000000	70.464959
421.500000	70.363754
420.000000	70.250809
418.500000	70.267635
417.000000	70.209601
415.500000	70.163996
414.000000	70.058753
412.500000	70.020917
411.000000	69.948769
409.500000	69.804476
408.000000	69.747752
406.500000	69.630445
405.000000	69.574398
403.500000	69.513162
402.000000	69.439026
400.500000	69.353803
399.000000	69.305791
397.500000	69.130845
396.000000	69.086252
394.500000	68.956458
393.000000	68.801029
391.500000	68.589350
390.000000	68.412527
388.500000	68.369955
387.000000	68.213902
385.500000	67.993345
384.000000	67.755590
382.500000	67.420038
381.000000	66.966151
379.500000	66.621030
378.000000	66.346773
376.500000	66.633917
375.000000	66.392884
373.500000	65.336471
372.000000	63.696851
370.500000	62.267847
369.000000	60.201191
367.500000	57.990743
366.000000	55.480807
364.500000	52.194825
363.000000	48.625055
361.500000	44.291761
360.000000	39.463766
358.500000	34.280304
357.000000	28.592166
355.500000	22.894765
354.000000	17.418752
352.500000	12.391707
351.000000	8.162593
349.500000	4.905625
348.000000	2.625127
346.500000	1.240777
345.000000	0.522312
343.500000	0.198714
342.000000	0.080746
340.500000	0.054043
339.000000	0.044616
337.500000	0.051015
336.000000	0.057274
334.500000	0.054223
333.000000	0.066273
331.500000	0.063469
330.000000	0.051955
328.500000	0.077760
327.000000	0.064272
325.500000	0.076458
324.000000	0.063221
322.500000	0.063439
321.000000	0.076765
319.500000	0.067935
318.000000	-0.004157
316.500000	-0.046117
315.000000	-0.043780
313.500000	-0.044159
312.000000	-0.043178
310.500000	-0.035679
309.000000	-0.032888
307.500000	-0.023557
306.000000	-0.022075
304.500000	-0.021174
303.000000	-0.017659
301.500000	-0.016519
300.000000	-0.025424
