PE UV       SUBTECH     SPECTRUM    ASCII       PEDS        4.00        
   -1
Sample231.Sample.Raw.asc
21/02/05
14:41:15.00
21/02/05
14:41:15.00
Administrator

300.000000
1
Lambda 850
850L1710193
PerkinElmer UV WinLab 6.4.0.973 / 2.02.06 Lambda 800 UV/VIS, Jan 28 2016 16:58:34

0
0
2
0
0
UV/VIS
1
1
1
RBeamAtt,SBeamAtt,60mm sphere
0
0
0
0
Fix
 
0
0.2
0
0
0
 
 
 
0
 
0
340
0
Front
100
 
S:100 R:100
 
0
0
0
 
0
 
 
 
0
 
 
0
0
0
0
0
 
 
 
 
0
0


0
0
#HDR
-1
-1
#GR
nm
%T
1.0
0.0
750.000000
-1.500000
301
8
75.462372
-0.035469
#DATA
750.000000	75.205531
748.500000	75.407762
747.000000	75.435222
745.500000	75.315668
744.000000	75.265080
742.500000	75.398601
741.000000	75.462372
739.500000	75.309614
738.000000	75.308899
736.500000	75.438767
735.000000	75.274460
733.500000	75.345588
732.000000	75.311291
730.500000	75.364300
729.000000	75.340951
727.500000	75.274198
726.000000	75.283383
724.500000	75.201304
723.000000	75.182075
721.500000	75.216645
720.000000	75.138124
718.500000	75.190530
717.000000	75.228082
715.500000	75.270838
714.000000	75.134967
712.500000	75.215970
711.000000	75.115106
709.500000	75.133296
708.000000	75.054049
706.500000	75.197958
705.000000	75.251647
703.500000	75.085860
702.000000	75.119606
700.500000	75.056349
699.000000	75.144855
697.500000	75.096055
696.000000	75.030335
694.500000	74.967195
693.000000	74.986177
691.500000	75.066609
690.000000	74.762094
688.500000	75.012866
687.000000	75.002905
685.500000	74.891545
684.000000	74.973495
682.500000	74.937245
681.000000	74.909512
679.500000	74.994240
678.000000	74.938920
676.500000	74.867644
675.000000	74.893116
673.500000	74.844263
672.000000	74.845872
670.500000	74.863539
669.000000	74.839151
667.500000	74.752670
666.000000	74.775515
664.500000	74.776693
663.000000	74.728471
661.500000	74.778842
660.000000	74.786683
658.500000	74.767585
657.000000	74.724178
655.500000	74.721380
654.000000	74.699448
652.500000	74.689619
651.000000	74.612655
649.500000	74.596853
648.000000	74.623128
646.500000	74.675145
645.000000	74.632584
643.500000	74.575732
642.000000	74.594309
640.500000	74.563419
639.000000	74.569396
637.500000	74.531299
636.000000	74.532134
634.500000	74.545741
633.000000	74.494370
631.500000	74.472422
630.000000	74.457909
628.500000	74.448121
627.000000	74.387692
625.500000	74.370495
624.000000	74.419230
622.500000	74.419487
621.000000	74.392504
619.500000	74.340362
618.000000	74.353299
616.500000	74.277660
615.000000	74.218982
613.500000	74.247720
612.000000	74.264400
610.500000	74.312899
609.000000	74.240669
607.500000	74.198358
606.000000	74.188768
604.500000	74.192776
603.000000	74.205320
601.500000	74.165891
600.000000	74.131564
598.500000	74.122645
597.000000	74.118660
595.500000	74.048301
594.000000	74.051387
592.500000	74.026853
591.000000	74.001936
589.500000	73.991118
588.000000	74.005541
586.500000	73.989035
585.000000	73.956926
583.500000	73.944691
582.000000	73.913331
580.500000	73.891608
579.000000	73.873839
577.500000	73.854102
576.000000	73.838220
574.500000	73.797752
573.000000	73.795807
571.500000	73.771857
570.000000	73.758687
568.500000	73.742119
567.000000	73.696712
565.500000	73.641207
564.000000	73.575010
562.500000	73.556961
561.000000	73.683290
559.500000	73.808543
558.000000	73.804279
556.500000	73.807796
555.000000	73.828623
553.500000	73.802670
552.000000	73.806569
550.500000	73.785603
549.000000	73.780261
547.500000	73.803654
546.000000	73.792691
544.500000	73.782062
543.000000	73.739156
541.500000	73.716759
540.000000	73.741173
538.500000	73.746920
537.000000	73.750143
535.500000	73.743960
534.000000	73.781536
532.500000	73.797628
531.000000	73.789738
529.500000	73.799826
528.000000	73.788230
526.500000	73.761160
525.000000	73.734517
523.500000	73.690744
522.000000	73.637827
520.500000	73.576022
519.000000	73.482572
517.500000	73.382391
516.000000	73.216015
514.500000	72.988284
513.000000	72.791568
511.500000	72.582504
510.000000	72.318391
508.500000	72.046943
507.000000	71.816553
505.500000	71.646866
504.000000	71.485909
502.500000	71.355060
501.000000	71.261144
499.500000	71.255085
498.000000	71.285641
496.500000	71.362490
495.000000	71.435174
493.500000	71.493492
492.000000	71.599130
490.500000	71.741638
489.000000	71.882237
487.500000	72.030525
486.000000	72.193191
484.500000	72.382940
483.000000	72.740480
481.500000	73.200695
480.000000	73.337181
478.500000	73.081638
477.000000	72.836316
475.500000	72.707067
474.000000	72.635517
472.500000	72.528208
471.000000	72.377640
469.500000	72.193164
468.000000	71.962348
466.500000	71.710937
465.000000	71.428286
463.500000	71.182840
462.000000	70.952599
460.500000	70.843139
459.000000	70.701087
457.500000	70.533422
456.000000	70.548485
454.500000	70.503182
453.000000	70.481824
451.500000	70.450960
450.000000	70.437869
448.500000	70.425658
447.000000	70.388549
445.500000	70.420615
444.000000	70.692703
442.500000	70.869525
441.000000	70.735424
439.500000	70.659130
438.000000	70.590039
436.500000	70.503279
435.000000	70.434003
433.500000	70.438756
432.000000	70.398032
430.500000	70.311256
429.000000	70.245346
427.500000	70.214313
426.000000	70.101106
424.500000	70.045817
423.000000	69.908494
421.500000	69.870531
420.000000	69.776095
418.500000	69.791578
417.000000	69.681175
415.500000	69.638145
414.000000	69.509832
412.500000	69.462455
411.000000	69.354402
409.500000	69.252382
408.000000	69.200915
406.500000	69.107944
405.000000	69.029988
403.500000	68.953047
402.000000	68.895497
400.500000	68.722391
399.000000	68.588709
397.500000	68.528147
396.000000	68.372175
394.500000	68.258073
393.000000	68.165747
391.500000	68.064135
390.000000	67.976689
388.500000	67.858622
387.000000	67.635781
385.500000	67.410499
384.000000	67.227129
382.500000	67.057571
381.000000	66.842414
379.500000	66.453605
378.000000	66.464849
376.500000	66.991113
375.000000	67.004726
373.500000	66.232957
372.000000	65.296570
370.500000	64.148907
369.000000	63.022650
367.500000	61.652498
366.000000	60.141831
364.500000	58.182671
363.000000	55.982688
361.500000	53.360311
360.000000	50.088962
358.500000	46.586111
357.000000	42.100647
355.500000	37.393902
354.000000	32.260472
352.500000	26.952624
351.000000	21.425806
349.500000	16.260375
348.000000	11.587987
346.500000	7.705116
345.000000	4.654184
343.500000	2.501379
342.000000	1.175342
340.500000	0.466434
339.000000	0.147995
337.500000	0.009113
336.000000	-0.018196
334.500000	-0.018291
333.000000	-0.007529
331.500000	-0.016471
330.000000	-0.021595
328.500000	-0.014714
327.000000	-0.026360
325.500000	-0.033122
324.000000	-0.027978
322.500000	-0.017641
321.000000	-0.025472
319.500000	-0.011408
318.000000	0.002543
316.500000	-0.032405
315.000000	-0.030938
313.500000	-0.035469
312.000000	-0.027378
310.500000	-0.021386
309.000000	-0.021490
307.500000	-0.013421
306.000000	-0.005211
304.500000	0.000095
303.000000	-0.005130
301.500000	-0.014261
300.000000	-0.011694
