PE UV       SUBTECH     SPECTRUM    ASCII       PEDS        4.00        
   -1
Sample80.Sample.Raw.asc
20/12/16
16:24:13.00
20/12/16
16:24:13.00
Administrator

300.000000
1
Lambda 850
850L1710193
PerkinElmer UV WinLab 6.4.0.973 / 2.02.06 Lambda 800 UV/VIS, Jan 28 2016 16:58:34

0
0
2
0
0
UV/VIS
1
1
1
RBeamAtt,SBeamAtt,60mm sphere
0
0
0
0
Fix
 
0
0.2
0
0
0
 
 
 
0
 
0
319.2
0
Front
100
 
S:100 R:100
 
0
0
0
 
0
 
 
 
0
 
 
0
0
0
0
0
 
 
 
 
0
0


0
0
#HDR
-1
-1
#GR
nm
%T
1.0
0.0
750.000000
-1.500000
301
8
74.339272
-0.031072
#DATA
750.000000	73.759584
748.500000	74.249749
747.000000	74.212885
745.500000	74.242001
744.000000	74.223637
742.500000	74.157272
741.000000	74.339272
739.500000	74.214871
738.000000	74.174158
736.500000	74.125267
735.000000	74.178844
733.500000	74.140087
732.000000	74.257723
730.500000	74.079213
729.000000	74.086422
727.500000	74.050586
726.000000	74.166265
724.500000	74.049572
723.000000	74.066241
721.500000	74.032749
720.000000	73.965062
718.500000	73.950519
717.000000	73.893221
715.500000	73.982284
714.000000	74.006680
712.500000	73.993664
711.000000	73.951268
709.500000	73.895213
708.000000	74.023759
706.500000	73.872034
705.000000	73.925905
703.500000	73.899752
702.000000	73.895445
700.500000	73.953245
699.000000	73.803114
697.500000	73.772855
696.000000	73.863617
694.500000	73.874977
693.000000	73.771776
691.500000	73.690424
690.000000	73.601983
688.500000	73.892652
687.000000	73.858663
685.500000	73.770355
684.000000	73.740344
682.500000	73.704426
681.000000	73.806784
679.500000	73.843047
678.000000	73.768807
676.500000	73.674738
675.000000	73.737012
673.500000	73.767305
672.000000	73.650785
670.500000	73.627901
669.000000	73.654985
667.500000	73.614545
666.000000	73.618679
664.500000	73.630125
663.000000	73.584371
661.500000	73.571586
660.000000	73.551806
658.500000	73.533902
657.000000	73.519423
655.500000	73.491350
654.000000	73.483639
652.500000	73.475104
651.000000	73.540094
649.500000	73.530145
648.000000	73.475569
646.500000	73.449921
645.000000	73.409268
643.500000	73.447263
642.000000	73.476413
640.500000	73.403339
639.000000	73.378542
637.500000	73.341558
636.000000	73.320677
634.500000	73.304815
633.000000	73.357544
631.500000	73.337051
630.000000	73.275559
628.500000	73.225056
627.000000	73.257113
625.500000	73.266188
624.000000	73.197688
622.500000	73.248130
621.000000	73.298238
619.500000	73.223405
618.000000	73.170716
616.500000	73.148784
615.000000	73.087655
613.500000	73.123163
612.000000	73.103476
610.500000	73.045813
609.000000	73.029543
607.500000	73.019534
606.000000	73.015141
604.500000	73.064904
603.000000	73.039217
601.500000	72.941121
600.000000	72.894594
598.500000	72.909926
597.000000	72.937170
595.500000	72.893789
594.000000	72.809833
592.500000	72.771780
591.000000	72.754551
589.500000	72.749456
588.000000	72.700872
586.500000	72.695090
585.000000	72.690744
583.500000	72.640944
582.000000	72.622749
580.500000	72.631952
579.000000	72.639413
577.500000	72.625755
576.000000	72.578125
574.500000	72.557705
573.000000	72.528313
571.500000	72.478233
570.000000	72.448540
568.500000	72.427127
567.000000	72.394198
565.500000	72.347997
564.000000	72.313607
562.500000	72.264274
561.000000	72.401365
559.500000	72.538197
558.000000	72.474591
556.500000	72.458406
555.000000	72.475636
553.500000	72.438514
552.000000	72.415285
550.500000	72.397220
549.000000	72.364031
547.500000	72.345287
546.000000	72.324163
544.500000	72.300686
543.000000	72.281393
541.500000	72.255401
540.000000	72.222616
538.500000	72.218353
537.000000	72.199713
535.500000	72.170625
534.000000	72.186155
532.500000	72.172335
531.000000	72.138009
529.500000	72.103953
528.000000	72.099840
526.500000	72.076831
525.000000	72.020081
523.500000	71.953852
522.000000	71.878229
520.500000	71.794065
519.000000	71.689379
517.500000	71.564335
516.000000	71.420807
514.500000	71.239634
513.000000	71.025466
511.500000	70.782217
510.000000	70.527283
508.500000	70.308660
507.000000	70.112193
505.500000	69.933304
504.000000	69.807101
502.500000	69.743489
501.000000	69.720219
499.500000	69.708762
498.000000	69.823174
496.500000	69.904650
495.000000	69.979840
493.500000	70.164222
492.000000	70.293024
490.500000	70.445764
489.000000	70.553661
487.500000	70.689780
486.000000	70.868134
484.500000	71.009774
483.000000	71.312688
481.500000	71.659021
480.000000	71.677843
478.500000	71.380480
477.000000	71.111838
475.500000	70.960306
474.000000	70.809533
472.500000	70.668872
471.000000	70.495258
469.500000	70.316627
468.000000	70.062039
466.500000	69.755555
465.000000	69.487255
463.500000	69.269097
462.000000	69.078846
460.500000	68.955248
459.000000	68.860777
457.500000	68.787013
456.000000	68.755704
454.500000	68.722192
453.000000	68.749792
451.500000	68.773798
450.000000	68.838771
448.500000	68.853038
447.000000	68.779362
445.500000	68.826773
444.000000	69.123367
442.500000	69.248678
441.000000	69.238424
439.500000	69.125861
438.000000	68.956014
436.500000	68.922056
435.000000	68.867664
433.500000	68.748067
432.000000	68.684882
430.500000	68.578738
429.000000	68.582463
427.500000	68.552985
426.000000	68.403065
424.500000	68.381010
423.000000	68.274473
421.500000	68.194981
420.000000	68.189299
418.500000	68.061499
417.000000	68.020311
415.500000	67.864134
414.000000	67.769296
412.500000	67.732863
411.000000	67.661257
409.500000	67.485174
408.000000	67.359842
406.500000	67.341899
405.000000	67.162394
403.500000	67.060426
402.000000	66.995563
400.500000	66.883147
399.000000	66.760983
397.500000	66.611791
396.000000	66.417807
394.500000	66.339871
393.000000	66.189008
391.500000	65.978990
390.000000	65.950662
388.500000	65.661561
387.000000	65.425523
385.500000	65.254872
384.000000	65.081754
382.500000	64.788226
381.000000	64.398331
379.500000	63.957166
378.000000	63.758284
376.500000	64.348996
375.000000	64.025214
373.500000	63.124616
372.000000	61.969936
370.500000	60.836896
369.000000	59.359700
367.500000	57.595260
366.000000	55.464580
364.500000	53.138483
363.000000	50.255084
361.500000	47.087008
360.000000	43.165426
358.500000	38.837610
357.000000	33.964210
355.500000	28.846154
354.000000	23.462464
352.500000	18.312992
351.000000	13.508490
349.500000	9.364596
348.000000	6.097967
346.500000	3.741234
345.000000	2.142460
343.500000	1.131248
342.000000	0.557431
340.500000	0.252742
339.000000	0.119469
337.500000	0.049736
336.000000	0.034619
334.500000	0.046074
333.000000	0.033746
331.500000	0.040049
330.000000	0.037215
328.500000	0.045552
327.000000	0.033040
325.500000	0.036722
324.000000	0.043311
322.500000	0.031154
321.000000	0.023371
319.500000	0.020837
318.000000	0.002256
316.500000	-0.024870
315.000000	-0.031072
313.500000	-0.028192
312.000000	-0.029940
310.500000	-0.029782
309.000000	-0.025545
307.500000	-0.013602
306.000000	-0.008515
304.500000	-0.007397
303.000000	-0.014616
301.500000	-0.014161
300.000000	-0.012366
