PE UV       SUBTECH     SPECTRUM    ASCII       PEDS        4.00        
   -1
Sample81.Sample.Raw.asc
20/12/16
16:27:19.00
20/12/16
16:27:19.00
Administrator

300.000000
1
Lambda 850
850L1710193
PerkinElmer UV WinLab 6.4.0.973 / 2.02.06 Lambda 800 UV/VIS, Jan 28 2016 16:58:34

0
0
2
0
0
UV/VIS
1
1
1
RBeamAtt,SBeamAtt,60mm sphere
0
0
0
0
Fix
 
0
0.2
0
0
0
 
 
 
0
 
0
319.2
0
Front
100
 
S:100 R:100
 
0
0
0
 
0
 
 
 
0
 
 
0
0
0
0
0
 
 
 
 
0
0


0
0
#HDR
-1
-1
#GR
nm
%T
1.0
0.0
750.000000
-1.500000
301
8
75.569994
-0.041294
#DATA
750.000000	75.197064
748.500000	75.569994
747.000000	75.415597
745.500000	75.394030
744.000000	75.349344
742.500000	75.362897
741.000000	75.416879
739.500000	75.293804
738.000000	75.380942
736.500000	75.265822
735.000000	75.461862
733.500000	75.444939
732.000000	75.414731
730.500000	75.280449
729.000000	75.322760
727.500000	75.424882
726.000000	75.403614
724.500000	75.339102
723.000000	75.371757
721.500000	75.297263
720.000000	75.264096
718.500000	75.286436
717.000000	75.167989
715.500000	75.093849
714.000000	75.183042
712.500000	75.213803
711.000000	75.108857
709.500000	75.097648
708.000000	75.252799
706.500000	75.135897
705.000000	75.142080
703.500000	75.138346
702.000000	75.159762
700.500000	75.105467
699.000000	74.997004
697.500000	74.989032
696.000000	75.074354
694.500000	74.936468
693.000000	75.049598
691.500000	74.927783
690.000000	74.805435
688.500000	75.111459
687.000000	75.050086
685.500000	74.907739
684.000000	74.883185
682.500000	74.886735
681.000000	74.966808
679.500000	74.997561
678.000000	74.900453
676.500000	74.888778
675.000000	74.877191
673.500000	74.909922
672.000000	74.825330
670.500000	74.836398
669.000000	74.865734
667.500000	74.813679
666.000000	74.813490
664.500000	74.868552
663.000000	74.801590
661.500000	74.781311
660.000000	74.785507
658.500000	74.747428
657.000000	74.765944
655.500000	74.781191
654.000000	74.780283
652.500000	74.752092
651.000000	74.725665
649.500000	74.639254
648.000000	74.602475
646.500000	74.619499
645.000000	74.611774
643.500000	74.629153
642.000000	74.637739
640.500000	74.586544
639.000000	74.599033
637.500000	74.568610
636.000000	74.533254
634.500000	74.544899
633.000000	74.561448
631.500000	74.503193
630.000000	74.481179
628.500000	74.487052
627.000000	74.505063
625.500000	74.474716
624.000000	74.425138
622.500000	74.452396
621.000000	74.464880
619.500000	74.459752
618.000000	74.413354
616.500000	74.368840
615.000000	74.361466
613.500000	74.335286
612.000000	74.254713
610.500000	74.243778
609.000000	74.326848
607.500000	74.270029
606.000000	74.245794
604.500000	74.272152
603.000000	74.257226
601.500000	74.216494
600.000000	74.172600
598.500000	74.184256
597.000000	74.166162
595.500000	74.114938
594.000000	74.076512
592.500000	74.053544
591.000000	74.042448
589.500000	74.055522
588.000000	74.011666
586.500000	74.023036
585.000000	74.014739
583.500000	73.951455
582.000000	73.950207
580.500000	73.942339
579.000000	73.935397
577.500000	73.931173
576.000000	73.903925
574.500000	73.875797
573.000000	73.861497
571.500000	73.842918
570.000000	73.806916
568.500000	73.754250
567.000000	73.712378
565.500000	73.719954
564.000000	73.684619
562.500000	73.630365
561.000000	73.789965
559.500000	73.927862
558.000000	73.890917
556.500000	73.903906
555.000000	73.939330
553.500000	73.886216
552.000000	73.849873
550.500000	73.843259
549.000000	73.830829
547.500000	73.852643
546.000000	73.852635
544.500000	73.848163
543.000000	73.844446
541.500000	73.825264
540.000000	73.832528
538.500000	73.854611
537.000000	73.854905
535.500000	73.851987
534.000000	73.864701
532.500000	73.854513
531.000000	73.841405
529.500000	73.845965
528.000000	73.849328
526.500000	73.869034
525.000000	73.829278
523.500000	73.760668
522.000000	73.717122
520.500000	73.655765
519.000000	73.543196
517.500000	73.424974
516.000000	73.276584
514.500000	73.076672
513.000000	72.856855
511.500000	72.598797
510.000000	72.341808
508.500000	72.114687
507.000000	71.889555
505.500000	71.673848
504.000000	71.493551
502.500000	71.386725
501.000000	71.331723
499.500000	71.299346
498.000000	71.372540
496.500000	71.379078
495.000000	71.425368
493.500000	71.574289
492.000000	71.691069
490.500000	71.810370
489.000000	71.936029
487.500000	72.055788
486.000000	72.224136
484.500000	72.441174
483.000000	72.777421
481.500000	73.207476
480.000000	73.340866
478.500000	73.112649
477.000000	72.877447
475.500000	72.794248
474.000000	72.674373
472.500000	72.586576
471.000000	72.439068
469.500000	72.273504
468.000000	72.028156
466.500000	71.734799
465.000000	71.438337
463.500000	71.217506
462.000000	71.017658
460.500000	70.859765
459.000000	70.707992
457.500000	70.609799
456.000000	70.532200
454.500000	70.526049
453.000000	70.534399
451.500000	70.520312
450.000000	70.461551
448.500000	70.446059
447.000000	70.390636
445.500000	70.434088
444.000000	70.771317
442.500000	70.950883
441.000000	70.890113
439.500000	70.796241
438.000000	70.686149
436.500000	70.624121
435.000000	70.567509
433.500000	70.501762
432.000000	70.407018
430.500000	70.369975
429.000000	70.342469
427.500000	70.293159
426.000000	70.177643
424.500000	70.078510
423.000000	70.053455
421.500000	70.014276
420.000000	69.940971
418.500000	69.886268
417.000000	69.854236
415.500000	69.696653
414.000000	69.618000
412.500000	69.545013
411.000000	69.479086
409.500000	69.448154
408.000000	69.264846
406.500000	69.331530
405.000000	69.183535
403.500000	69.085733
402.000000	68.930119
400.500000	68.883707
399.000000	68.780227
397.500000	68.647173
396.000000	68.515776
394.500000	68.433666
393.000000	68.364232
391.500000	68.217855
390.000000	68.120825
388.500000	68.019654
387.000000	67.734723
385.500000	67.606969
384.000000	67.495537
382.500000	67.206336
381.000000	66.960525
379.500000	66.623998
378.000000	66.665887
376.500000	67.282871
375.000000	67.271678
373.500000	66.432867
372.000000	65.709621
370.500000	64.677319
369.000000	63.676867
367.500000	62.244110
366.000000	60.805275
364.500000	58.992023
363.000000	56.775715
361.500000	54.367521
360.000000	51.308807
358.500000	47.883600
357.000000	43.714141
355.500000	39.241605
354.000000	34.240677
352.500000	28.927464
351.000000	23.525800
349.500000	18.234775
348.000000	13.431698
346.500000	9.238532
345.000000	5.828391
343.500000	3.319428
342.000000	1.682355
340.500000	0.700058
339.000000	0.267418
337.500000	0.089025
336.000000	0.034619
334.500000	0.033584
333.000000	0.037177
331.500000	0.040885
330.000000	0.032204
328.500000	0.042577
327.000000	0.040743
325.500000	0.042393
324.000000	0.045174
322.500000	0.039710
321.000000	0.048512
319.500000	0.045580
318.000000	-0.011658
316.500000	-0.041294
315.000000	-0.034264
313.500000	-0.034395
312.000000	-0.040673
310.500000	-0.029876
309.000000	-0.025262
307.500000	-0.017664
306.000000	-0.012962
304.500000	-0.008061
303.000000	-0.017558
301.500000	-0.017487
300.000000	-0.017693
