PE UV       SUBTECH     SPECTRUM    ASCII       PEDS        4.00        
   -1
Sample85.Sample.Raw.asc
20/12/16
16:42:46.00
20/12/16
16:42:46.00
Administrator

300.000000
1
Lambda 850
850L1710193
PerkinElmer UV WinLab 6.4.0.973 / 2.02.06 Lambda 800 UV/VIS, Jan 28 2016 16:58:34

0
0
2
0
0
UV/VIS
1
1
1
RBeamAtt,SBeamAtt,60mm sphere
0
0
0
0
Fix
 
0
0.2
0
0
0
 
 
 
0
 
0
319.2
0
Front
100
 
S:100 R:100
 
0
0
0
 
0
 
 
 
0
 
 
0
0
0
0
0
 
 
 
 
0
0


0
0
#HDR
-1
-1
#GR
nm
%T
1.0
0.0
750.000000
-1.500000
301
8
75.419545
-0.027628
#DATA
750.000000	75.039236
748.500000	75.364366
747.000000	75.335293
745.500000	75.344317
744.000000	75.364827
742.500000	75.253464
741.000000	75.419545
739.500000	75.136721
738.000000	75.194823
736.500000	75.149601
735.000000	75.361681
733.500000	75.359579
732.000000	75.380043
730.500000	75.062837
729.000000	75.147634
727.500000	75.211519
726.000000	75.258779
724.500000	75.146744
723.000000	75.255946
721.500000	75.209371
720.000000	75.155078
718.500000	75.160250
717.000000	75.155314
715.500000	75.085158
714.000000	75.172876
712.500000	75.069965
711.000000	75.051348
709.500000	75.021107
708.000000	75.061615
706.500000	75.094370
705.000000	75.063278
703.500000	75.012873
702.000000	74.960442
700.500000	75.041795
699.000000	74.937828
697.500000	74.944426
696.000000	75.039066
694.500000	74.951407
693.000000	74.904704
691.500000	74.813723
690.000000	74.790162
688.500000	75.090666
687.000000	74.960062
685.500000	74.836284
684.000000	74.878032
682.500000	74.836422
681.000000	74.872617
679.500000	74.898366
678.000000	74.848753
676.500000	74.769962
675.000000	74.849307
673.500000	74.830773
672.000000	74.736991
670.500000	74.789725
669.000000	74.804930
667.500000	74.751175
666.000000	74.708741
664.500000	74.734579
663.000000	74.663708
661.500000	74.624084
660.000000	74.702970
658.500000	74.689536
657.000000	74.674531
655.500000	74.734749
654.000000	74.726695
652.500000	74.647766
651.000000	74.575762
649.500000	74.598712
648.000000	74.586361
646.500000	74.539346
645.000000	74.536777
643.500000	74.548593
642.000000	74.543013
640.500000	74.537426
639.000000	74.536659
637.500000	74.512809
636.000000	74.496701
634.500000	74.462737
633.000000	74.481303
631.500000	74.433094
630.000000	74.407300
628.500000	74.405099
627.000000	74.436507
625.500000	74.410675
624.000000	74.319857
622.500000	74.366007
621.000000	74.383864
619.500000	74.328109
618.000000	74.294038
616.500000	74.266255
615.000000	74.268429
613.500000	74.260905
612.000000	74.226270
610.500000	74.185896
609.000000	74.197588
607.500000	74.192652
606.000000	74.174519
604.500000	74.161959
603.000000	74.186976
601.500000	74.132839
600.000000	74.105697
598.500000	74.099433
597.000000	74.058884
595.500000	74.017982
594.000000	74.001526
592.500000	73.985006
591.000000	73.968135
589.500000	73.981665
588.000000	73.928669
586.500000	73.920074
585.000000	73.895516
583.500000	73.867893
582.000000	73.872329
580.500000	73.865612
579.000000	73.868386
577.500000	73.813414
576.000000	73.774233
574.500000	73.776284
573.000000	73.773294
571.500000	73.747644
570.000000	73.702248
568.500000	73.679435
567.000000	73.646646
565.500000	73.623053
564.000000	73.615008
562.500000	73.570694
561.000000	73.698249
559.500000	73.860819
558.000000	73.822576
556.500000	73.781735
555.000000	73.826027
553.500000	73.819594
552.000000	73.788462
550.500000	73.796701
549.000000	73.787326
547.500000	73.790397
546.000000	73.773067
544.500000	73.765952
543.000000	73.752409
541.500000	73.733570
540.000000	73.739278
538.500000	73.742870
537.000000	73.752477
535.500000	73.746675
534.000000	73.756980
532.500000	73.762966
531.000000	73.756463
529.500000	73.762505
528.000000	73.755942
526.500000	73.747060
525.000000	73.707817
523.500000	73.672238
522.000000	73.621160
520.500000	73.540782
519.000000	73.437568
517.500000	73.334787
516.000000	73.175569
514.500000	72.977312
513.000000	72.736034
511.500000	72.488734
510.000000	72.228034
508.500000	71.993993
507.000000	71.753203
505.500000	71.557129
504.000000	71.406707
502.500000	71.308272
501.000000	71.254002
499.500000	71.211954
498.000000	71.247506
496.500000	71.270127
495.000000	71.314390
493.500000	71.478478
492.000000	71.585793
490.500000	71.666736
489.000000	71.838250
487.500000	71.955104
486.000000	72.111226
484.500000	72.297701
483.000000	72.656903
481.500000	73.097904
480.000000	73.239504
478.500000	73.022076
477.000000	72.789797
475.500000	72.674144
474.000000	72.574485
472.500000	72.447457
471.000000	72.307461
469.500000	72.145988
468.000000	71.903360
466.500000	71.601704
465.000000	71.339338
463.500000	71.112378
462.000000	70.869990
460.500000	70.744471
459.000000	70.615994
457.500000	70.490459
456.000000	70.451000
454.500000	70.385120
453.000000	70.354456
451.500000	70.358772
450.000000	70.379886
448.500000	70.373285
447.000000	70.276779
445.500000	70.347518
444.000000	70.683749
442.500000	70.845891
441.000000	70.724088
439.500000	70.661985
438.000000	70.593334
436.500000	70.492463
435.000000	70.482765
433.500000	70.345696
432.000000	70.300541
430.500000	70.212320
429.000000	70.190889
427.500000	70.096444
426.000000	70.054000
424.500000	70.007989
423.000000	69.944637
421.500000	69.890861
420.000000	69.815556
418.500000	69.808709
417.000000	69.700363
415.500000	69.590670
414.000000	69.479864
412.500000	69.420049
411.000000	69.366683
409.500000	69.275875
408.000000	69.155040
406.500000	69.149309
405.000000	69.004714
403.500000	68.883038
402.000000	68.782289
400.500000	68.715220
399.000000	68.622605
397.500000	68.465082
396.000000	68.335907
394.500000	68.262427
393.000000	68.172849
391.500000	68.013999
390.000000	67.962135
388.500000	67.754823
387.000000	67.619183
385.500000	67.466406
384.000000	67.262991
382.500000	66.988603
381.000000	66.816574
379.500000	66.483865
378.000000	66.296277
376.500000	67.080855
375.000000	67.062622
373.500000	66.231387
372.000000	65.357938
370.500000	64.499318
369.000000	63.413139
367.500000	62.061672
366.000000	60.432711
364.500000	58.630611
363.000000	56.478352
361.500000	54.083951
360.000000	51.087311
358.500000	47.587040
357.000000	43.515480
355.500000	39.029010
354.000000	34.002136
352.500000	28.725718
351.000000	23.306555
349.500000	18.097007
348.000000	13.272203
346.500000	9.124670
345.000000	5.746908
343.500000	3.243913
342.000000	1.636564
340.500000	0.697099
339.000000	0.255767
337.500000	0.082647
336.000000	0.039155
334.500000	0.035249
333.000000	0.036435
331.500000	0.042651
330.000000	0.044083
328.500000	0.058752
327.000000	0.052158
325.500000	0.068703
324.000000	0.072278
322.500000	0.070400
321.000000	0.073746
319.500000	0.067905
318.000000	0.014197
316.500000	-0.027310
315.000000	-0.018399
313.500000	-0.027628
312.000000	-0.027115
310.500000	-0.019509
309.000000	-0.019324
307.500000	-0.018419
306.000000	-0.011732
304.500000	-0.010052
303.000000	-0.017843
301.500000	-0.023189
300.000000	-0.016362
