PE UV       SUBTECH     SPECTRUM    ASCII       PEDS        4.00        
   -1
Sample77.Sample.Raw.asc
20/12/16
16:12:54.00
20/12/16
16:12:54.00
Administrator

300.000000
1
Lambda 850
850L1710193
PerkinElmer UV WinLab 6.4.0.973 / 2.02.06 Lambda 800 UV/VIS, Jan 28 2016 16:58:34

0
0
2
0
0
UV/VIS
1
1
1
RBeamAtt,SBeamAtt,60mm sphere
0
0
0
0
Fix
 
0
0.2
0
0
0
 
 
 
0
 
0
319.2
0
Front
100
 
S:100 R:100
 
0
0
0
 
0
 
 
 
0
 
 
0
0
0
0
0
 
 
 
 
0
0


0
0
#HDR
-1
-1
#GR
nm
%T
1.0
0.0
750.000000
-1.500000
301
8
74.293951
-0.024316
#DATA
750.000000	73.839020
748.500000	74.274999
747.000000	74.105356
745.500000	74.162348
744.000000	74.118323
742.500000	74.014532
741.000000	74.086131
739.500000	73.894416
738.000000	74.155660
736.500000	73.982698
735.000000	74.223594
733.500000	74.140411
732.000000	74.293951
730.500000	73.917823
729.000000	74.073942
727.500000	74.075797
726.000000	74.120476
724.500000	74.021245
723.000000	73.963668
721.500000	74.032424
720.000000	74.065469
718.500000	73.940613
717.000000	73.982111
715.500000	73.827319
714.000000	73.969515
712.500000	73.993989
711.000000	73.935812
709.500000	73.782314
708.000000	74.067784
706.500000	73.880014
705.000000	73.850037
703.500000	73.854207
702.000000	73.857375
700.500000	73.945408
699.000000	73.793903
697.500000	73.718383
696.000000	73.769597
694.500000	73.738893
693.000000	73.804855
691.500000	73.747985
690.000000	73.582055
688.500000	73.772147
687.000000	73.798347
685.500000	73.720729
684.000000	73.682846
682.500000	73.644787
681.000000	73.694574
679.500000	73.686631
678.000000	73.636078
676.500000	73.563946
675.000000	73.634336
673.500000	73.607613
672.000000	73.565806
670.500000	73.587380
669.000000	73.633897
667.500000	73.579848
666.000000	73.561260
664.500000	73.552221
663.000000	73.551132
661.500000	73.467206
660.000000	73.537926
658.500000	73.535133
657.000000	73.505543
655.500000	73.556861
654.000000	73.513227
652.500000	73.483407
651.000000	73.444216
649.500000	73.412137
648.000000	73.391464
646.500000	73.366069
645.000000	73.357872
643.500000	73.395669
642.000000	73.401768
640.500000	73.333405
639.000000	73.298970
637.500000	73.269049
636.000000	73.290217
634.500000	73.243812
633.000000	73.286213
631.500000	73.248995
630.000000	73.188749
628.500000	73.172178
627.000000	73.205943
625.500000	73.198686
624.000000	73.109624
622.500000	73.107747
621.000000	73.148004
619.500000	73.160222
618.000000	73.101863
616.500000	73.099058
615.000000	73.071159
613.500000	73.019177
612.000000	72.970165
610.500000	72.968554
609.000000	72.988051
607.500000	72.949251
606.000000	72.933059
604.500000	72.948273
603.000000	72.915724
601.500000	72.834696
600.000000	72.805500
598.500000	72.795563
597.000000	72.771962
595.500000	72.774472
594.000000	72.728825
592.500000	72.665303
591.000000	72.687826
589.500000	72.736665
588.000000	72.690559
586.500000	72.639648
585.000000	72.624079
583.500000	72.573962
582.000000	72.550152
580.500000	72.556380
579.000000	72.532047
577.500000	72.527307
576.000000	72.480030
574.500000	72.461327
573.000000	72.457850
571.500000	72.411830
570.000000	72.363338
568.500000	72.336722
567.000000	72.279395
565.500000	72.231633
564.000000	72.206304
562.500000	72.158861
561.000000	72.288040
559.500000	72.420706
558.000000	72.399648
556.500000	72.375693
555.000000	72.377693
553.500000	72.354885
552.000000	72.308887
550.500000	72.266790
549.000000	72.265468
547.500000	72.281556
546.000000	72.238735
544.500000	72.198006
543.000000	72.194226
541.500000	72.156608
540.000000	72.123921
538.500000	72.136238
537.000000	72.120890
535.500000	72.095520
534.000000	72.074554
532.500000	72.050246
531.000000	72.047535
529.500000	71.996635
528.000000	71.983912
526.500000	71.976163
525.000000	71.921988
523.500000	71.841560
522.000000	71.756417
520.500000	71.700393
519.000000	71.586890
517.500000	71.468120
516.000000	71.303025
514.500000	71.094435
513.000000	70.859058
511.500000	70.622117
510.000000	70.401372
508.500000	70.175996
507.000000	69.962058
505.500000	69.797517
504.000000	69.648189
502.500000	69.599712
501.000000	69.599383
499.500000	69.603114
498.000000	69.686728
496.500000	69.780726
495.000000	69.884421
493.500000	70.057719
492.000000	70.216369
490.500000	70.348624
489.000000	70.424978
487.500000	70.564569
486.000000	70.721443
484.500000	70.850147
483.000000	71.126782
481.500000	71.480915
480.000000	71.547460
478.500000	71.270940
477.000000	70.994304
475.500000	70.841537
474.000000	70.674679
472.500000	70.549866
471.000000	70.386934
469.500000	70.166329
468.000000	69.919475
466.500000	69.615377
465.000000	69.336051
463.500000	69.134253
462.000000	68.923608
460.500000	68.800025
459.000000	68.674949
457.500000	68.597898
456.000000	68.540807
454.500000	68.542306
453.000000	68.598672
451.500000	68.650267
450.000000	68.631565
448.500000	68.615770
447.000000	68.600313
445.500000	68.700343
444.000000	69.004627
442.500000	69.097777
441.000000	69.023607
439.500000	68.935567
438.000000	68.834389
436.500000	68.713352
435.000000	68.644369
433.500000	68.496531
432.000000	68.470161
430.500000	68.350837
429.000000	68.329072
427.500000	68.304184
426.000000	68.185615
424.500000	68.159659
423.000000	68.084866
421.500000	67.948066
420.000000	67.939567
418.500000	67.852359
417.000000	67.770839
415.500000	67.663538
414.000000	67.546715
412.500000	67.495703
411.000000	67.394800
409.500000	67.188007
408.000000	67.064200
406.500000	67.083587
405.000000	66.923247
403.500000	66.830716
402.000000	66.697385
400.500000	66.586464
399.000000	66.551987
397.500000	66.364937
396.000000	66.203443
394.500000	66.060416
393.000000	65.884231
391.500000	65.708365
390.000000	65.634081
388.500000	65.433698
387.000000	65.178561
385.500000	64.945045
384.000000	64.709645
382.500000	64.384864
381.000000	64.149493
379.500000	63.598840
378.000000	63.495869
376.500000	63.834987
375.000000	63.723285
373.500000	62.618140
372.000000	61.608959
370.500000	60.435300
369.000000	59.033392
367.500000	57.209049
366.000000	55.147713
364.500000	52.798320
363.000000	49.824638
361.500000	46.682327
360.000000	42.854948
358.500000	38.536288
357.000000	33.726384
355.500000	28.585245
354.000000	23.264750
352.500000	18.074130
351.000000	13.335117
349.500000	9.256994
348.000000	6.061819
346.500000	3.695597
345.000000	2.125665
343.500000	1.129959
342.000000	0.566663
340.500000	0.265597
339.000000	0.121041
337.500000	0.064065
336.000000	0.050448
334.500000	0.059304
333.000000	0.052752
331.500000	0.056961
330.000000	0.058839
328.500000	0.068235
327.000000	0.063945
325.500000	0.079115
324.000000	0.068552
322.500000	0.081931
321.000000	0.082405
319.500000	0.064091
318.000000	0.001786
316.500000	-0.022149
315.000000	-0.024125
313.500000	-0.019359
312.000000	-0.021749
310.500000	-0.024316
309.000000	-0.014045
307.500000	-0.004723
306.000000	-0.000000
304.500000	0.003983
303.000000	-0.003701
301.500000	-0.008458
300.000000	-0.001998
