PE UV       SUBTECH     SPECTRUM    ASCII       PEDS        4.00        
   -1
Sample318.Sample.Raw.asc
21/03/25
15:30:24.00
21/03/25
15:30:24.00
Administrator

300.000000
1
Lambda 850
850L1710193
PerkinElmer UV WinLab 6.4.0.973 / 2.02.06 Lambda 800 UV/VIS, Jan 28 2016 16:58:34

0
0
2
0
0
UV/VIS
1
1
1
RBeamAtt,SBeamAtt,60mm sphere
0
0
0
0
Fix
 
0
0.2
0
0
0
 
 
 
0
 
0
340
0
Front
100
 
S:100 R:100
 
0
0
0
 
0
 
 
 
0
 
 
0
0
0
0
0
 
 
 
 
0
0


0
0
#HDR
-1
-1
#GR
nm
%T
1.0
0.0
750.000000
-1.500000
301
8
73.696510
-0.039078
#DATA
750.000000	73.346374
748.500000	73.612441
747.000000	73.696510
745.500000	73.658192
744.000000	73.545357
742.500000	73.560166
741.000000	73.546001
739.500000	73.391678
738.000000	73.537334
736.500000	73.590369
735.000000	73.453538
733.500000	73.437079
732.000000	73.446778
730.500000	73.444587
729.000000	73.483120
727.500000	73.323697
726.000000	73.312208
724.500000	73.207588
723.000000	73.328898
721.500000	73.352421
720.000000	73.213719
718.500000	73.232794
717.000000	73.223169
715.500000	73.223241
714.000000	73.132979
712.500000	72.964276
711.000000	73.040261
709.500000	73.159144
708.000000	73.038463
706.500000	73.010381
705.000000	73.056173
703.500000	72.999732
702.000000	72.997564
700.500000	72.879484
699.000000	72.938961
697.500000	72.984405
696.000000	72.852256
694.500000	72.903475
693.000000	72.851941
691.500000	72.700872
690.000000	72.598659
688.500000	72.809672
687.000000	72.714186
685.500000	72.699148
684.000000	72.684906
682.500000	72.566118
681.000000	72.570919
679.500000	72.599585
678.000000	72.485929
676.500000	72.454298
675.000000	72.449023
673.500000	72.465658
672.000000	72.447952
670.500000	72.367756
669.000000	72.259911
667.500000	72.213662
666.000000	72.182773
664.500000	72.160514
663.000000	72.075756
661.500000	72.053497
660.000000	71.972320
658.500000	71.864402
657.000000	71.833754
655.500000	71.786774
654.000000	71.692938
652.500000	71.594546
651.000000	71.594872
649.500000	71.461470
648.000000	71.339406
646.500000	71.363032
645.000000	71.287456
643.500000	71.245596
642.000000	71.134784
640.500000	71.079850
639.000000	71.022971
637.500000	70.907173
636.000000	70.818225
634.500000	70.768286
633.000000	70.657343
631.500000	70.567900
630.000000	70.476961
628.500000	70.383154
627.000000	70.296430
625.500000	70.229475
624.000000	70.115698
622.500000	69.990531
621.000000	69.925480
619.500000	69.847207
618.000000	69.738607
616.500000	69.629818
615.000000	69.533985
613.500000	69.466062
612.000000	69.348826
610.500000	69.211726
609.000000	69.137498
607.500000	68.997578
606.000000	68.915440
604.500000	68.835050
603.000000	68.769915
601.500000	68.648457
600.000000	68.524711
598.500000	68.446276
597.000000	68.317675
595.500000	68.178621
594.000000	68.085171
592.500000	68.013432
591.000000	67.931203
589.500000	67.826102
588.000000	67.725744
586.500000	67.605046
585.000000	67.526466
583.500000	67.435581
582.000000	67.315071
580.500000	67.198763
579.000000	67.108007
577.500000	67.029587
576.000000	66.931719
574.500000	66.824262
573.000000	66.752147
571.500000	66.634623
570.000000	66.534337
568.500000	66.464253
567.000000	66.302002
565.500000	66.177029
564.000000	66.091365
562.500000	66.014405
561.000000	66.096090
559.500000	66.155047
558.000000	66.044174
556.500000	65.985181
555.000000	65.924076
553.500000	65.839245
552.000000	65.756377
550.500000	65.692143
549.000000	65.599030
547.500000	65.541716
546.000000	65.525647
544.500000	65.475569
543.000000	65.429695
541.500000	65.410698
540.000000	65.352027
538.500000	65.267760
537.000000	65.254722
535.500000	65.215193
534.000000	65.165125
532.500000	65.153338
531.000000	65.125174
529.500000	65.074265
528.000000	65.029634
526.500000	64.982158
525.000000	64.901031
523.500000	64.819484
522.000000	64.754438
520.500000	64.674737
519.000000	64.562732
517.500000	64.422446
516.000000	64.243225
514.500000	64.043877
513.000000	63.804831
511.500000	63.519283
510.000000	63.230012
508.500000	62.964542
507.000000	62.648335
505.500000	62.388775
504.000000	62.189715
502.500000	61.991457
501.000000	61.815279
499.500000	61.681403
498.000000	61.575458
496.500000	61.551329
495.000000	61.492217
493.500000	61.456968
492.000000	61.454293
490.500000	61.504152
489.000000	61.553709
487.500000	61.666760
486.000000	61.810133
484.500000	62.006464
483.000000	62.369586
481.500000	62.749882
480.000000	62.915445
478.500000	62.792359
477.000000	62.614460
475.500000	62.530298
474.000000	62.467316
472.500000	62.376164
471.000000	62.225389
469.500000	62.030388
468.000000	61.809819
466.500000	61.561007
465.000000	61.290454
463.500000	61.085862
462.000000	60.833419
460.500000	60.602543
459.000000	60.378617
457.500000	60.253467
456.000000	60.147943
454.500000	60.036060
453.000000	59.933458
451.500000	59.818481
450.000000	59.752374
448.500000	59.721291
447.000000	59.616435
445.500000	59.573866
444.000000	59.732166
442.500000	59.848312
441.000000	59.769116
439.500000	59.652495
438.000000	59.551109
436.500000	59.469109
435.000000	59.382454
433.500000	59.296301
432.000000	59.212271
430.500000	59.170038
429.000000	59.076336
427.500000	58.931017
426.000000	58.901154
424.500000	58.794935
423.000000	58.717420
421.500000	58.597550
420.000000	58.547079
418.500000	58.500212
417.000000	58.402303
415.500000	58.236385
414.000000	58.192695
412.500000	58.138097
411.000000	58.009259
409.500000	57.942642
408.000000	57.763015
406.500000	57.758454
405.000000	57.730023
403.500000	57.555610
402.000000	57.504279
400.500000	57.424094
399.000000	57.326472
397.500000	57.277570
396.000000	57.110319
394.500000	57.088706
393.000000	56.946483
391.500000	56.890831
390.000000	56.873663
388.500000	56.647631
387.000000	56.615306
385.500000	56.498809
384.000000	56.257630
382.500000	56.242097
381.000000	55.991583
379.500000	55.811572
378.000000	55.698468
376.500000	56.150615
375.000000	56.534758
373.500000	55.759973
372.000000	55.104192
370.500000	54.147031
369.000000	53.403727
367.500000	52.362090
366.000000	51.146627
364.500000	49.875832
363.000000	48.064319
361.500000	46.039538
360.000000	43.671146
358.500000	40.756023
357.000000	37.417724
355.500000	33.754638
354.000000	29.447736
352.500000	24.999655
351.000000	20.482456
349.500000	16.046153
348.000000	11.870918
346.500000	8.187584
345.000000	5.186331
343.500000	2.998832
342.000000	1.528323
340.500000	0.686553
339.000000	0.200886
337.500000	0.024243
336.000000	-0.035409
334.500000	-0.034379
333.000000	-0.037689
331.500000	-0.032761
330.000000	-0.025782
328.500000	-0.037323
327.000000	-0.039078
325.500000	-0.020990
324.000000	-0.027843
322.500000	-0.021501
321.000000	-0.029201
319.500000	-0.020393
318.000000	0.006310
316.500000	-0.025393
315.000000	-0.028917
313.500000	-0.034909
312.000000	-0.030633
310.500000	-0.034250
309.000000	-0.025995
307.500000	-0.017879
306.000000	-0.009679
304.500000	-0.009399
303.000000	-0.017210
301.500000	-0.014566
300.000000	-0.012864
