PE UV       SUBTECH     SPECTRUM    ASCII       PEDS        4.00        
   -1
Sample92.Sample.Raw.asc
20/12/16
17:04:26.00
20/12/16
17:04:26.00
Administrator

300.000000
1
Lambda 850
850L1710193
PerkinElmer UV WinLab 6.4.0.973 / 2.02.06 Lambda 800 UV/VIS, Jan 28 2016 16:58:34

0
0
2
0
0
UV/VIS
1
1
1
RBeamAtt,SBeamAtt,60mm sphere
0
0
0
0
Fix
 
0
0.2
0
0
0
 
 
 
0
 
0
319.2
0
Front
100
 
S:100 R:100
 
0
0
0
 
0
 
 
 
0
 
 
0
0
0
0
0
 
 
 
 
0
0


0
0
#HDR
-1
-1
#GR
nm
%T
1.0
0.0
750.000000
-1.500000
301
8
74.452716
-0.035672
#DATA
750.000000	74.244152
748.500000	74.448117
747.000000	74.308573
745.500000	74.452716
744.000000	74.446037
742.500000	74.350172
741.000000	74.355108
739.500000	74.329376
738.000000	74.226424
736.500000	74.274949
735.000000	74.402189
733.500000	74.300197
732.000000	74.352304
730.500000	74.322226
729.000000	74.251499
727.500000	74.250736
726.000000	74.322628
724.500000	74.292576
723.000000	74.266190
721.500000	74.317705
720.000000	74.299427
718.500000	74.165702
717.000000	74.199543
715.500000	74.112722
714.000000	74.169980
712.500000	74.204089
711.000000	74.126561
709.500000	74.053742
708.000000	74.227580
706.500000	74.088785
705.000000	74.135256
703.500000	74.043150
702.000000	74.053434
700.500000	74.097079
699.000000	73.962467
697.500000	73.925591
696.000000	74.087843
694.500000	74.058981
693.000000	74.013782
691.500000	73.924424
690.000000	73.891432
688.500000	74.059657
687.000000	74.096980
685.500000	74.017584
684.000000	73.983503
682.500000	73.903223
681.000000	73.935539
679.500000	73.965688
678.000000	73.873025
676.500000	73.835807
675.000000	73.951057
673.500000	73.894026
672.000000	73.855570
670.500000	73.881774
669.000000	73.922491
667.500000	73.803368
666.000000	73.723838
664.500000	73.732986
663.000000	73.755739
661.500000	73.757697
660.000000	73.787672
658.500000	73.752415
657.000000	73.761959
655.500000	73.754628
654.000000	73.670294
652.500000	73.741962
651.000000	73.733085
649.500000	73.688283
648.000000	73.639832
646.500000	73.592717
645.000000	73.628668
643.500000	73.641131
642.000000	73.604800
640.500000	73.547157
639.000000	73.541060
637.500000	73.492254
636.000000	73.533983
634.500000	73.523392
633.000000	73.503337
631.500000	73.508962
630.000000	73.447367
628.500000	73.413507
627.000000	73.396617
625.500000	73.405478
624.000000	73.387242
622.500000	73.395438
621.000000	73.411841
619.500000	73.404869
618.000000	73.349649
616.500000	73.286499
615.000000	73.296410
613.500000	73.267720
612.000000	73.216918
610.500000	73.191261
609.000000	73.221990
607.500000	73.198624
606.000000	73.163384
604.500000	73.146950
603.000000	73.154621
601.500000	73.096057
600.000000	73.062883
598.500000	73.076438
597.000000	73.023322
595.500000	72.993633
594.000000	72.969622
592.500000	72.938712
591.000000	72.920332
589.500000	72.904184
588.000000	72.869919
586.500000	72.864053
585.000000	72.852294
583.500000	72.807490
582.000000	72.758869
580.500000	72.751333
579.000000	72.763284
577.500000	72.736253
576.000000	72.682324
574.500000	72.672235
573.000000	72.666681
571.500000	72.614916
570.000000	72.563106
568.500000	72.532380
567.000000	72.499930
565.500000	72.457928
564.000000	72.413733
562.500000	72.364083
561.000000	72.472873
559.500000	72.586828
558.000000	72.559604
556.500000	72.542853
555.000000	72.556650
553.500000	72.508192
552.000000	72.481401
550.500000	72.482082
549.000000	72.460530
547.500000	72.449058
546.000000	72.426430
544.500000	72.397755
543.000000	72.362121
541.500000	72.338677
540.000000	72.308356
538.500000	72.289161
537.000000	72.285964
535.500000	72.276020
534.000000	72.277944
532.500000	72.257691
531.000000	72.224190
529.500000	72.207473
528.000000	72.203135
526.500000	72.171719
525.000000	72.083165
523.500000	72.001658
522.000000	71.954453
520.500000	71.883028
519.000000	71.767919
517.500000	71.635692
516.000000	71.489445
514.500000	71.290924
513.000000	71.068740
511.500000	70.821189
510.000000	70.558988
508.500000	70.346552
507.000000	70.157589
505.500000	69.994222
504.000000	69.849038
502.500000	69.784780
501.000000	69.762838
499.500000	69.768566
498.000000	69.876760
496.500000	69.969590
495.000000	70.063343
493.500000	70.227129
492.000000	70.369596
490.500000	70.511437
489.000000	70.605999
487.500000	70.774334
486.000000	70.893262
484.500000	71.018184
483.000000	71.351888
481.500000	71.684512
480.000000	71.676254
478.500000	71.397358
477.000000	71.121104
475.500000	70.953962
474.000000	70.829561
472.500000	70.654101
471.000000	70.465965
469.500000	70.287836
468.000000	70.041685
466.500000	69.758389
465.000000	69.443376
463.500000	69.203090
462.000000	69.018282
460.500000	68.891529
459.000000	68.767697
457.500000	68.673245
456.000000	68.649296
454.500000	68.637701
453.000000	68.682479
451.500000	68.663604
450.000000	68.742425
448.500000	68.716836
447.000000	68.663084
445.500000	68.737194
444.000000	69.010074
442.500000	69.182544
441.000000	69.125641
439.500000	69.029664
438.000000	68.899737
436.500000	68.831735
435.000000	68.764424
433.500000	68.678060
432.000000	68.624074
430.500000	68.541974
429.000000	68.484946
427.500000	68.502922
426.000000	68.398176
424.500000	68.358909
423.000000	68.266875
421.500000	68.182225
420.000000	68.050183
418.500000	68.037876
417.000000	68.016663
415.500000	67.908343
414.000000	67.740667
412.500000	67.650972
411.000000	67.583163
409.500000	67.529569
408.000000	67.298639
406.500000	67.221135
405.000000	67.141940
403.500000	67.022761
402.000000	66.828017
400.500000	66.773264
399.000000	66.610013
397.500000	66.511750
396.000000	66.305433
394.500000	66.105873
393.000000	66.000016
391.500000	65.785952
390.000000	65.718586
388.500000	65.447149
387.000000	65.162501
385.500000	65.002003
384.000000	64.772977
382.500000	64.408987
381.000000	64.137011
379.500000	63.596414
378.000000	63.357108
376.500000	63.800371
375.000000	63.489372
373.500000	62.539388
372.000000	61.415078
370.500000	60.108752
369.000000	58.785720
367.500000	56.948931
366.000000	54.897028
364.500000	52.442380
363.000000	49.622322
361.500000	46.424462
360.000000	42.612785
358.500000	38.198880
357.000000	33.417550
355.500000	28.349273
354.000000	23.086945
352.500000	17.909131
351.000000	13.210832
349.500000	9.218828
348.000000	6.016104
346.500000	3.698271
345.000000	2.117821
343.500000	1.132630
342.000000	0.554292
340.500000	0.250523
339.000000	0.101530
337.500000	0.049643
336.000000	0.044986
334.500000	0.020724
333.000000	0.026422
331.500000	0.029363
330.000000	0.032018
328.500000	0.037092
327.000000	0.034896
325.500000	0.045089
324.000000	0.037536
322.500000	0.046592
321.000000	0.055682
319.500000	0.052092
318.000000	-0.008744
316.500000	-0.028624
315.000000	-0.035672
313.500000	-0.034113
312.000000	-0.035118
310.500000	-0.032798
309.000000	-0.026205
307.500000	-0.023898
306.000000	-0.011164
304.500000	-0.008914
303.000000	-0.013762
301.500000	-0.016062
300.000000	-0.016647
