PE UV       SUBTECH     SPECTRUM    ASCII       PEDS        4.00        
   -1
Sample91.Sample.Raw.asc
20/12/16
17:01:06.00
20/12/16
17:01:06.00
Administrator

300.000000
1
Lambda 850
850L1710193
PerkinElmer UV WinLab 6.4.0.973 / 2.02.06 Lambda 800 UV/VIS, Jan 28 2016 16:58:34

0
0
2
0
0
UV/VIS
1
1
1
RBeamAtt,SBeamAtt,60mm sphere
0
0
0
0
Fix
 
0
0.2
0
0
0
 
 
 
0
 
0
319.2
0
Front
100
 
S:100 R:100
 
0
0
0
 
0
 
 
 
0
 
 
0
0
0
0
0
 
 
 
 
0
0


0
0
#HDR
-1
-1
#GR
nm
%T
1.0
0.0
750.000000
-1.500000
301
8
75.747387
-0.029751
#DATA
750.000000	75.257866
748.500000	75.747387
747.000000	75.419544
745.500000	75.695939
744.000000	75.463931
742.500000	75.405235
741.000000	75.568214
739.500000	75.399117
738.000000	75.533133
736.500000	75.496972
735.000000	75.540438
733.500000	75.534510
732.000000	75.621640
730.500000	75.341931
729.000000	75.382324
727.500000	75.466793
726.000000	75.533673
724.500000	75.444210
723.000000	75.448748
721.500000	75.466384
720.000000	75.466778
718.500000	75.345956
717.000000	75.333663
715.500000	75.314683
714.000000	75.319911
712.500000	75.327604
711.000000	75.237623
709.500000	75.289608
708.000000	75.367673
706.500000	75.198756
705.000000	75.173862
703.500000	75.248827
702.000000	75.203865
700.500000	75.275097
699.000000	75.064088
697.500000	75.144459
696.000000	75.261658
694.500000	75.100145
693.000000	75.146874
691.500000	75.074421
690.000000	75.018111
688.500000	75.253250
687.000000	75.155905
685.500000	75.120303
684.000000	75.142538
682.500000	75.039309
681.000000	75.045846
679.500000	75.053799
678.000000	75.003441
676.500000	74.968863
675.000000	75.068437
673.500000	75.013021
672.000000	74.917930
670.500000	75.007998
669.000000	75.022955
667.500000	74.976500
666.000000	74.937516
664.500000	74.915754
663.000000	74.882349
661.500000	74.830382
660.000000	74.951320
658.500000	74.860339
657.000000	74.868938
655.500000	74.901445
654.000000	74.853433
652.500000	74.838496
651.000000	74.837003
649.500000	74.770995
648.000000	74.746185
646.500000	74.813757
645.000000	74.770732
643.500000	74.769699
642.000000	74.727692
640.500000	74.670712
639.000000	74.697037
637.500000	74.703422
636.000000	74.640030
634.500000	74.637517
633.000000	74.695956
631.500000	74.631199
630.000000	74.578449
628.500000	74.557639
627.000000	74.564392
625.500000	74.593153
624.000000	74.511059
622.500000	74.545546
621.000000	74.574358
619.500000	74.526729
618.000000	74.472559
616.500000	74.474147
615.000000	74.482793
613.500000	74.415193
612.000000	74.356201
610.500000	74.345773
609.000000	74.369000
607.500000	74.339652
606.000000	74.313027
604.500000	74.329765
603.000000	74.320953
601.500000	74.257249
600.000000	74.234636
598.500000	74.261076
597.000000	74.258173
595.500000	74.207438
594.000000	74.149271
592.500000	74.117133
591.000000	74.113792
589.500000	74.133422
588.000000	74.084350
586.500000	74.041681
585.000000	74.047412
583.500000	74.006970
582.000000	74.008367
580.500000	74.004133
579.000000	73.979136
577.500000	73.954857
576.000000	73.940886
574.500000	73.943954
573.000000	73.908857
571.500000	73.867747
570.000000	73.849806
568.500000	73.831292
567.000000	73.799552
565.500000	73.750798
564.000000	73.702434
562.500000	73.675201
561.000000	73.850834
559.500000	73.952632
558.000000	73.917493
556.500000	73.944437
555.000000	73.960388
553.500000	73.927494
552.000000	73.878516
550.500000	73.874876
549.000000	73.874827
547.500000	73.890783
546.000000	73.869556
544.500000	73.846182
543.000000	73.836357
541.500000	73.827492
540.000000	73.824688
538.500000	73.827212
537.000000	73.835839
535.500000	73.843651
534.000000	73.865114
532.500000	73.880103
531.000000	73.868151
529.500000	73.851661
528.000000	73.848337
526.500000	73.839718
525.000000	73.789149
523.500000	73.720623
522.000000	73.681033
520.500000	73.635114
519.000000	73.497939
517.500000	73.369639
516.000000	73.236360
514.500000	73.030585
513.000000	72.814820
511.500000	72.573779
510.000000	72.312828
508.500000	72.061935
507.000000	71.823773
505.500000	71.629686
504.000000	71.459210
502.500000	71.351628
501.000000	71.282414
499.500000	71.223105
498.000000	71.289680
496.500000	71.330517
495.000000	71.371492
493.500000	71.531357
492.000000	71.650419
490.500000	71.777326
489.000000	71.873640
487.500000	71.992850
486.000000	72.135356
484.500000	72.334839
483.000000	72.720957
481.500000	73.177304
480.000000	73.269444
478.500000	73.040374
477.000000	72.779946
475.500000	72.652945
474.000000	72.531341
472.500000	72.404311
471.000000	72.250629
469.500000	72.071132
468.000000	71.860316
466.500000	71.579619
465.000000	71.268066
463.500000	71.021483
462.000000	70.797113
460.500000	70.602641
459.000000	70.499040
457.500000	70.332947
456.000000	70.274124
454.500000	70.227959
453.000000	70.225829
451.500000	70.230407
450.000000	70.235826
448.500000	70.195773
447.000000	70.188298
445.500000	70.224849
444.000000	70.540037
442.500000	70.684080
441.000000	70.632887
439.500000	70.578223
438.000000	70.497412
436.500000	70.430793
435.000000	70.376666
433.500000	70.291994
432.000000	70.222155
430.500000	70.158479
429.000000	70.105668
427.500000	70.067114
426.000000	69.989355
424.500000	70.013725
423.000000	69.893648
421.500000	69.870672
420.000000	69.803970
418.500000	69.719295
417.000000	69.664312
415.500000	69.566487
414.000000	69.463552
412.500000	69.396299
411.000000	69.358148
409.500000	69.282034
408.000000	69.067865
406.500000	69.054454
405.000000	68.932219
403.500000	68.837581
402.000000	68.694390
400.500000	68.581879
399.000000	68.485375
397.500000	68.304491
396.000000	68.221333
394.500000	68.230297
393.000000	68.100085
391.500000	67.853415
390.000000	67.817054
388.500000	67.603211
387.000000	67.434407
385.500000	67.277738
384.000000	67.131758
382.500000	66.849605
381.000000	66.597370
379.500000	66.206295
378.000000	66.204638
376.500000	66.747948
375.000000	66.808131
373.500000	65.925663
372.000000	64.991677
370.500000	64.071733
369.000000	62.996611
367.500000	61.536785
366.000000	59.983756
364.500000	58.160584
363.000000	56.029390
361.500000	53.460007
360.000000	50.377283
358.500000	46.964704
357.000000	42.771257
355.500000	38.223366
354.000000	33.274310
352.500000	27.996821
351.000000	22.723834
349.500000	17.537661
348.000000	12.818553
346.500000	8.774047
345.000000	5.505689
343.500000	3.091226
342.000000	1.542767
340.500000	0.661772
339.000000	0.248924
337.500000	0.099102
336.000000	0.061093
334.500000	0.048294
333.000000	0.045706
331.500000	0.031779
330.000000	0.036287
328.500000	0.040160
327.000000	0.032205
325.500000	0.042765
324.000000	0.025055
322.500000	0.022320
321.000000	0.031286
319.500000	0.011814
318.000000	0.015513
316.500000	-0.016424
315.000000	-0.027880
313.500000	-0.025655
312.000000	-0.029751
310.500000	-0.018284
309.000000	-0.023377
307.500000	-0.017569
306.000000	-0.009272
304.500000	-0.006354
303.000000	-0.011104
301.500000	-0.018342
300.000000	-0.018930
