PE UV       SUBTECH     SPECTRUM    ASCII       PEDS        4.00        
   -1
Sample65.Sample.Raw.asc
20/12/15
16:51:59.00
20/12/15
16:51:59.00
Administrator

300.000000
1
Lambda 850
850L1710193
PerkinElmer UV WinLab 6.4.0.973 / 2.02.06 Lambda 800 UV/VIS, Jan 28 2016 16:58:34

0
0
2
0
0
UV/VIS
1
1
1
RBeamAtt,SBeamAtt,60mm sphere
0
0
0
0
Fix
 
0
0.2
0
0
0
 
 
 
0
 
0
319.2
0
Front
100
 
S:100 R:100
 
0
0
0
 
0
 
 
 
0
 
 
0
0
0
0
0
 
 
 
 
0
0


0
0
#HDR
-1
-1
#GR
nm
%T
1.0
0.0
750.000000
-1.500000
301
8
75.443204
-0.026582
#DATA
750.000000	74.719336
748.500000	75.089061
747.000000	75.279086
745.500000	75.190721
744.000000	75.443204
742.500000	75.290355
741.000000	75.193768
739.500000	75.196244
738.000000	75.276073
736.500000	75.162775
735.000000	75.055978
733.500000	75.073388
732.000000	75.204563
730.500000	75.181289
729.000000	75.097829
727.500000	75.060855
726.000000	75.091866
724.500000	75.189849
723.000000	74.983490
721.500000	74.986167
720.000000	74.969495
718.500000	74.990978
717.000000	74.998964
715.500000	75.026130
714.000000	74.985945
712.500000	74.874206
711.000000	75.089044
709.500000	74.881898
708.000000	74.974571
706.500000	74.971337
705.000000	75.036819
703.500000	74.939187
702.000000	74.835002
700.500000	74.826637
699.000000	74.906134
697.500000	74.758833
696.000000	74.868292
694.500000	74.773015
693.000000	74.760325
691.500000	74.727560
690.000000	74.592515
688.500000	74.832541
687.000000	74.846654
685.500000	74.800859
684.000000	74.778391
682.500000	74.719883
681.000000	74.765670
679.500000	74.764326
678.000000	74.724869
676.500000	74.688432
675.000000	74.696232
673.500000	74.608846
672.000000	74.613660
670.500000	74.649250
669.000000	74.640963
667.500000	74.699438
666.000000	74.585105
664.500000	74.595964
663.000000	74.654608
661.500000	74.587625
660.000000	74.480076
658.500000	74.478489
657.000000	74.513506
655.500000	74.521360
654.000000	74.447546
652.500000	74.447666
651.000000	74.478959
649.500000	74.447966
648.000000	74.418151
646.500000	74.421147
645.000000	74.389421
643.500000	74.418115
642.000000	74.440619
640.500000	74.357892
639.000000	74.366561
637.500000	74.309693
636.000000	74.288355
634.500000	74.313244
633.000000	74.276931
631.500000	74.298762
630.000000	74.242245
628.500000	74.273375
627.000000	74.225844
625.500000	74.181604
624.000000	74.248644
622.500000	74.247388
621.000000	74.218116
619.500000	74.195461
618.000000	74.167793
616.500000	74.123720
615.000000	74.114135
613.500000	74.129946
612.000000	74.091849
610.500000	74.068402
609.000000	74.032796
607.500000	73.976021
606.000000	73.981697
604.500000	73.943593
603.000000	73.944759
601.500000	73.964519
600.000000	73.928385
598.500000	73.903268
597.000000	73.905935
595.500000	73.868106
594.000000	73.883301
592.500000	73.883280
591.000000	73.828356
589.500000	73.820101
588.000000	73.767996
586.500000	73.736680
585.000000	73.748286
583.500000	73.710067
582.000000	73.731888
580.500000	73.733315
579.000000	73.705148
577.500000	73.700459
576.000000	73.691172
574.500000	73.639592
573.000000	73.640014
571.500000	73.663131
570.000000	73.604383
568.500000	73.572241
567.000000	73.531110
565.500000	73.473163
564.000000	73.417652
562.500000	73.429133
561.000000	73.539884
559.500000	73.648508
558.000000	73.672156
556.500000	73.667320
555.000000	73.678051
553.500000	73.681482
552.000000	73.656139
550.500000	73.651187
549.000000	73.630651
547.500000	73.619457
546.000000	73.656155
544.500000	73.666601
543.000000	73.637305
541.500000	73.609050
540.000000	73.605210
538.500000	73.613364
537.000000	73.609856
535.500000	73.619348
534.000000	73.624388
532.500000	73.640448
531.000000	73.668398
529.500000	73.671637
528.000000	73.657832
526.500000	73.643468
525.000000	73.640902
523.500000	73.613544
522.000000	73.554642
520.500000	73.482008
519.000000	73.387602
517.500000	73.278750
516.000000	73.115716
514.500000	72.914092
513.000000	72.705837
511.500000	72.463076
510.000000	72.199009
508.500000	71.954647
507.000000	71.710149
505.500000	71.506246
504.000000	71.361718
502.500000	71.218212
501.000000	71.162821
499.500000	71.190336
498.000000	71.226575
496.500000	71.280390
495.000000	71.343899
493.500000	71.412792
492.000000	71.535819
490.500000	71.632468
489.000000	71.763097
487.500000	71.928209
486.000000	72.077757
484.500000	72.305442
483.000000	72.653579
481.500000	73.105664
480.000000	73.272822
478.500000	73.063516
477.000000	72.827626
475.500000	72.715528
474.000000	72.596742
472.500000	72.493541
471.000000	72.358442
469.500000	72.176126
468.000000	71.929430
466.500000	71.709850
465.000000	71.420611
463.500000	71.149668
462.000000	70.941715
460.500000	70.819489
459.000000	70.683750
457.500000	70.553460
456.000000	70.507347
454.500000	70.495629
453.000000	70.402099
451.500000	70.408105
450.000000	70.416608
448.500000	70.433189
447.000000	70.375768
445.500000	70.355035
444.000000	70.634307
442.500000	70.800136
441.000000	70.742709
439.500000	70.677993
438.000000	70.585627
436.500000	70.510193
435.000000	70.427044
433.500000	70.395095
432.000000	70.409821
430.500000	70.306735
429.000000	70.238626
427.500000	70.115262
426.000000	70.028548
424.500000	70.022120
423.000000	69.952686
421.500000	69.817933
420.000000	69.805728
418.500000	69.688043
417.000000	69.612914
415.500000	69.498633
414.000000	69.491959
412.500000	69.303226
411.000000	69.321667
409.500000	69.187201
408.000000	69.084636
406.500000	68.986631
405.000000	68.919854
403.500000	68.862388
402.000000	68.798056
400.500000	68.556276
399.000000	68.446450
397.500000	68.336925
396.000000	68.229633
394.500000	68.128434
393.000000	68.032444
391.500000	67.905710
390.000000	67.730136
388.500000	67.561501
387.000000	67.396818
385.500000	67.279669
384.000000	67.010677
382.500000	66.744433
381.000000	66.427095
379.500000	66.219473
378.000000	66.062923
376.500000	66.615486
375.000000	66.744462
373.500000	65.880040
372.000000	64.955927
370.500000	63.946116
369.000000	62.811669
367.500000	61.595769
366.000000	60.208263
364.500000	58.460712
363.000000	56.527809
361.500000	53.935644
360.000000	51.275424
358.500000	47.923112
357.000000	44.181298
355.500000	39.911538
354.000000	35.126510
352.500000	30.014378
351.000000	24.787822
349.500000	19.592119
348.000000	14.711418
346.500000	10.402204
345.000000	6.786225
343.500000	4.033793
342.000000	2.134048
340.500000	0.976853
339.000000	0.401592
337.500000	0.153423
336.000000	0.064178
334.500000	0.062366
333.000000	0.066474
331.500000	0.062747
330.000000	0.073592
328.500000	0.064639
327.000000	0.068437
325.500000	0.065382
324.000000	0.059432
322.500000	0.055350
321.000000	0.077346
319.500000	0.073626
318.000000	0.007243
316.500000	-0.024040
315.000000	-0.026582
313.500000	-0.018617
312.000000	-0.021833
310.500000	-0.020716
309.000000	-0.015940
307.500000	-0.012007
306.000000	-0.004928
304.500000	0.003510
303.000000	-0.009605
301.500000	-0.009226
300.000000	-0.010556
