PE UV       SUBTECH     SPECTRUM    ASCII       PEDS        4.00        
   -1
Sample64.Sample.Raw.asc
20/12/15
16:48:56.00
20/12/15
16:48:56.00
Administrator

300.000000
1
Lambda 850
850L1710193
PerkinElmer UV WinLab 6.4.0.973 / 2.02.06 Lambda 800 UV/VIS, Jan 28 2016 16:58:34

0
0
2
0
0
UV/VIS
1
1
1
RBeamAtt,SBeamAtt,60mm sphere
0
0
0
0
Fix
 
0
0.2
0
0
0
 
 
 
0
 
0
319.2
0
Front
100
 
S:100 R:100
 
0
0
0
 
0
 
 
 
0
 
 
0
0
0
0
0
 
 
 
 
0
0


0
0
#HDR
-1
-1
#GR
nm
%T
1.0
0.0
750.000000
-1.500000
301
8
73.958554
-0.042831
#DATA
750.000000	73.321271
748.500000	73.772165
747.000000	73.862199
745.500000	73.808809
744.000000	73.958554
742.500000	73.931552
741.000000	73.785293
739.500000	73.726511
738.000000	73.808541
736.500000	73.785176
735.000000	73.733553
733.500000	73.664912
732.000000	73.839648
730.500000	73.752779
729.000000	73.711043
727.500000	73.641901
726.000000	73.691657
724.500000	73.760508
723.000000	73.592846
721.500000	73.571084
720.000000	73.508898
718.500000	73.661829
717.000000	73.638046
715.500000	73.648004
714.000000	73.635965
712.500000	73.534765
711.000000	73.599223
709.500000	73.468016
708.000000	73.548269
706.500000	73.580449
705.000000	73.614126
703.500000	73.594003
702.000000	73.534424
700.500000	73.444954
699.000000	73.505023
697.500000	73.390604
696.000000	73.368787
694.500000	73.343247
693.000000	73.371493
691.500000	73.392763
690.000000	73.176054
688.500000	73.389209
687.000000	73.349842
685.500000	73.386530
684.000000	73.402276
682.500000	73.392262
681.000000	73.423233
679.500000	73.362981
678.000000	73.351875
676.500000	73.303532
675.000000	73.281054
673.500000	73.207772
672.000000	73.197932
670.500000	73.166590
669.000000	73.208263
667.500000	73.194453
666.000000	73.191880
664.500000	73.183192
663.000000	73.224156
661.500000	73.189751
660.000000	73.129904
658.500000	73.105501
657.000000	73.120402
655.500000	73.095091
654.000000	73.082023
652.500000	73.108475
651.000000	73.052825
649.500000	73.046623
648.000000	73.036107
646.500000	73.007667
645.000000	72.958727
643.500000	72.975063
642.000000	72.979664
640.500000	72.946444
639.000000	72.916020
637.500000	72.865258
636.000000	72.875228
634.500000	72.890217
633.000000	72.866401
631.500000	72.846954
630.000000	72.806771
628.500000	72.838744
627.000000	72.763251
625.500000	72.747167
624.000000	72.785792
622.500000	72.775667
621.000000	72.729468
619.500000	72.773067
618.000000	72.702511
616.500000	72.617358
615.000000	72.651997
613.500000	72.660573
612.000000	72.586421
610.500000	72.573951
609.000000	72.549194
607.500000	72.517141
606.000000	72.499697
604.500000	72.431914
603.000000	72.425895
601.500000	72.479999
600.000000	72.470882
598.500000	72.414610
597.000000	72.398265
595.500000	72.392471
594.000000	72.336461
592.500000	72.323016
591.000000	72.292453
589.500000	72.243162
588.000000	72.198424
586.500000	72.192861
585.000000	72.213423
583.500000	72.160901
582.000000	72.126613
580.500000	72.106396
579.000000	72.093349
577.500000	72.111219
576.000000	72.083983
574.500000	72.041977
573.000000	72.037409
571.500000	72.001899
570.000000	71.949355
568.500000	71.916649
567.000000	71.846770
565.500000	71.787533
564.000000	71.724525
562.500000	71.727360
561.000000	71.850667
559.500000	71.947155
558.000000	71.944148
556.500000	71.929208
555.000000	71.904365
553.500000	71.863665
552.000000	71.854828
550.500000	71.855439
549.000000	71.796846
547.500000	71.747234
546.000000	71.771804
544.500000	71.774072
543.000000	71.706500
541.500000	71.667852
540.000000	71.657077
538.500000	71.651021
537.000000	71.639104
535.500000	71.611345
534.000000	71.593115
532.500000	71.586809
531.000000	71.548019
529.500000	71.519610
528.000000	71.492071
526.500000	71.457368
525.000000	71.413568
523.500000	71.365850
522.000000	71.304504
520.500000	71.212155
519.000000	71.090956
517.500000	70.963018
516.000000	70.799775
514.500000	70.609780
513.000000	70.383716
511.500000	70.147942
510.000000	69.892580
508.500000	69.650527
507.000000	69.433884
505.500000	69.273159
504.000000	69.126674
502.500000	69.067392
501.000000	69.066455
499.500000	69.173154
498.000000	69.257555
496.500000	69.326733
495.000000	69.441894
493.500000	69.599725
492.000000	69.763944
490.500000	69.858377
489.000000	70.017720
487.500000	70.172781
486.000000	70.243578
484.500000	70.435114
483.000000	70.710679
481.500000	71.008012
480.000000	71.039831
478.500000	70.793728
477.000000	70.490767
475.500000	70.328944
474.000000	70.175335
472.500000	70.034316
471.000000	69.840149
469.500000	69.629518
468.000000	69.362570
466.500000	69.122788
465.000000	68.873495
463.500000	68.606427
462.000000	68.392954
460.500000	68.274672
459.000000	68.175474
457.500000	68.113229
456.000000	68.116201
454.500000	68.130995
453.000000	68.115203
451.500000	68.152676
450.000000	68.206294
448.500000	68.204632
447.000000	68.166509
445.500000	68.205003
444.000000	68.456329
442.500000	68.559459
441.000000	68.554365
439.500000	68.454398
438.000000	68.280198
436.500000	68.198177
435.000000	68.150579
433.500000	68.080869
432.000000	68.014722
430.500000	68.013553
429.000000	67.928046
427.500000	67.801587
426.000000	67.673747
424.500000	67.612522
423.000000	67.523813
421.500000	67.385018
420.000000	67.288580
418.500000	67.224434
417.000000	67.153644
415.500000	66.958117
414.000000	66.941509
412.500000	66.811046
411.000000	66.736271
409.500000	66.575050
408.000000	66.486152
406.500000	66.365716
405.000000	66.209967
403.500000	66.068422
402.000000	65.863736
400.500000	65.725700
399.000000	65.655064
397.500000	65.464516
396.000000	65.282441
394.500000	65.168978
393.000000	64.935654
391.500000	64.813193
390.000000	64.557435
388.500000	64.383102
387.000000	64.109171
385.500000	63.864511
384.000000	63.540743
382.500000	63.133950
381.000000	62.780238
379.500000	62.421281
378.000000	61.989715
376.500000	62.528429
375.000000	62.426177
373.500000	61.228341
372.000000	60.075410
370.500000	58.794131
369.000000	57.274345
367.500000	55.686928
366.000000	53.770829
364.500000	51.515176
363.000000	48.963668
361.500000	45.714557
360.000000	42.161191
358.500000	38.122595
357.000000	33.639205
355.500000	28.748824
354.000000	23.722687
352.500000	18.707683
351.000000	14.019588
349.500000	9.911401
348.000000	6.590410
346.500000	4.116298
345.000000	2.430836
343.500000	1.334334
342.000000	0.692331
340.500000	0.325987
339.000000	0.151338
337.500000	0.082641
336.000000	0.074551
334.500000	0.058004
333.000000	0.060457
331.500000	0.058106
330.000000	0.070441
328.500000	0.066497
327.000000	0.074194
325.500000	0.056454
324.000000	0.062222
322.500000	0.073582
321.000000	0.071755
319.500000	0.046751
318.000000	-0.012981
316.500000	-0.035215
315.000000	-0.042831
313.500000	-0.042406
312.000000	-0.033314
310.500000	-0.027307
309.000000	-0.028296
307.500000	-0.020705
306.000000	-0.013931
304.500000	-0.015557
303.000000	-0.011603
301.500000	-0.018642
300.000000	-0.013790
