PE UV       SUBTECH     SPECTRUM    ASCII       PEDS        4.00        
   -1
Sample68.Sample.Raw.asc
20/12/15
17:02:10.00
20/12/15
17:02:10.00
Administrator

300.000000
1
Lambda 850
850L1710193
PerkinElmer UV WinLab 6.4.0.973 / 2.02.06 Lambda 800 UV/VIS, Jan 28 2016 16:58:34

0
0
2
0
0
UV/VIS
1
1
1
RBeamAtt,SBeamAtt,60mm sphere
0
0
0
0
Fix
 
0
0.2
0
0
0
 
 
 
0
 
0
319.2
0
Front
100
 
S:100 R:100
 
0
0
0
 
0
 
 
 
0
 
 
0
0
0
0
0
 
 
 
 
0
0


0
0
#HDR
-1
-1
#GR
nm
%T
1.0
0.0
750.000000
-1.500000
301
8
73.830171
-0.028138
#DATA
750.000000	73.367908
748.500000	73.766603
747.000000	73.769681
745.500000	73.735669
744.000000	73.778410
742.500000	73.800100
741.000000	73.801931
739.500000	73.712217
738.000000	73.810322
736.500000	73.633161
735.000000	73.701820
733.500000	73.684671
732.000000	73.830171
730.500000	73.653087
729.000000	73.612079
727.500000	73.523958
726.000000	73.514655
724.500000	73.707861
723.000000	73.511716
721.500000	73.672417
720.000000	73.645776
718.500000	73.651019
717.000000	73.546473
715.500000	73.681652
714.000000	73.602689
712.500000	73.451878
711.000000	73.663856
709.500000	73.522866
708.000000	73.480676
706.500000	73.485843
705.000000	73.520590
703.500000	73.468912
702.000000	73.450926
700.500000	73.466642
699.000000	73.429342
697.500000	73.371931
696.000000	73.411649
694.500000	73.259920
693.000000	73.346844
691.500000	73.372752
690.000000	73.216953
688.500000	73.409909
687.000000	73.355568
685.500000	73.395290
684.000000	73.368708
682.500000	73.302559
681.000000	73.364810
679.500000	73.326434
678.000000	73.302395
676.500000	73.286736
675.000000	73.248836
673.500000	73.151319
672.000000	73.197112
670.500000	73.244853
669.000000	73.196039
667.500000	73.233866
666.000000	73.174648
664.500000	73.202890
663.000000	73.240670
661.500000	73.184082
660.000000	73.070787
658.500000	73.074220
657.000000	73.074987
655.500000	73.095419
654.000000	73.067070
652.500000	73.069121
651.000000	73.054880
649.500000	73.071211
648.000000	73.058394
646.500000	73.037608
645.000000	72.943270
643.500000	72.961160
642.000000	72.944272
640.500000	72.880956
639.000000	72.953057
637.500000	72.905500
636.000000	72.863871
634.500000	72.891205
633.000000	72.830750
631.500000	72.832459
630.000000	72.820028
628.500000	72.791453
627.000000	72.788459
625.500000	72.826180
624.000000	72.801703
622.500000	72.769403
621.000000	72.712738
619.500000	72.736785
618.000000	72.706221
616.500000	72.646371
615.000000	72.626026
613.500000	72.644245
612.000000	72.613876
610.500000	72.598941
609.000000	72.559340
607.500000	72.489109
606.000000	72.476120
604.500000	72.443371
603.000000	72.449639
601.500000	72.459212
600.000000	72.452897
598.500000	72.449842
597.000000	72.419229
595.500000	72.359711
594.000000	72.363530
592.500000	72.364279
591.000000	72.312582
589.500000	72.283427
588.000000	72.226311
586.500000	72.199626
585.000000	72.224070
583.500000	72.192756
582.000000	72.167376
580.500000	72.155327
579.000000	72.140632
577.500000	72.131189
576.000000	72.079032
574.500000	72.065413
573.000000	72.066465
571.500000	72.035330
570.000000	71.954966
568.500000	71.920609
567.000000	71.891724
565.500000	71.824484
564.000000	71.770535
562.500000	71.789681
561.000000	71.912607
559.500000	72.018877
558.000000	71.983024
556.500000	71.939443
555.000000	71.931519
553.500000	71.905270
552.000000	71.886203
550.500000	71.882105
549.000000	71.859489
547.500000	71.822830
546.000000	71.814904
544.500000	71.809495
543.000000	71.760317
541.500000	71.739486
540.000000	71.739522
538.500000	71.725226
537.000000	71.703729
535.500000	71.670101
534.000000	71.634212
532.500000	71.617761
531.000000	71.593746
529.500000	71.565507
528.000000	71.534663
526.500000	71.504088
525.000000	71.494979
523.500000	71.445782
522.000000	71.362892
520.500000	71.289144
519.000000	71.167941
517.500000	71.050410
516.000000	70.899232
514.500000	70.708905
513.000000	70.469115
511.500000	70.223008
510.000000	69.991488
508.500000	69.756933
507.000000	69.513119
505.500000	69.351907
504.000000	69.224312
502.500000	69.175614
501.000000	69.172000
499.500000	69.257230
498.000000	69.390340
496.500000	69.453496
495.000000	69.586386
493.500000	69.713663
492.000000	69.895953
490.500000	70.029875
489.000000	70.136681
487.500000	70.299785
486.000000	70.410329
484.500000	70.559375
483.000000	70.813810
481.500000	71.145088
480.000000	71.154272
478.500000	70.903520
477.000000	70.643146
475.500000	70.446287
474.000000	70.295913
472.500000	70.164838
471.000000	69.968233
469.500000	69.731890
468.000000	69.482110
466.500000	69.260647
465.000000	68.995346
463.500000	68.758046
462.000000	68.579256
460.500000	68.462594
459.000000	68.330006
457.500000	68.270837
456.000000	68.259793
454.500000	68.278400
453.000000	68.261356
451.500000	68.315165
450.000000	68.322227
448.500000	68.336116
447.000000	68.297541
445.500000	68.343297
444.000000	68.645853
442.500000	68.783141
441.000000	68.679722
439.500000	68.589322
438.000000	68.459554
436.500000	68.476967
435.000000	68.333974
433.500000	68.227790
432.000000	68.205060
430.500000	68.135785
429.000000	68.039711
427.500000	67.971787
426.000000	67.911074
424.500000	67.841662
423.000000	67.717562
421.500000	67.639900
420.000000	67.484400
418.500000	67.435216
417.000000	67.325897
415.500000	67.201836
414.000000	67.116244
412.500000	66.963482
411.000000	66.916058
409.500000	66.739806
408.000000	66.623705
406.500000	66.533941
405.000000	66.412394
403.500000	66.318858
402.000000	66.181019
400.500000	65.988512
399.000000	65.858849
397.500000	65.729836
396.000000	65.483194
394.500000	65.427436
393.000000	65.221321
391.500000	64.977495
390.000000	64.792516
388.500000	64.600352
387.000000	64.385323
385.500000	64.081096
384.000000	63.753868
382.500000	63.464890
381.000000	63.085234
379.500000	62.696915
378.000000	62.226268
376.500000	62.749100
375.000000	62.678541
373.500000	61.559180
372.000000	60.404361
370.500000	59.014928
369.000000	57.581210
367.500000	55.930340
366.000000	53.925371
364.500000	51.693073
363.000000	48.994663
361.500000	45.859956
360.000000	42.283936
358.500000	38.276360
357.000000	33.777311
355.500000	28.849950
354.000000	23.698308
352.500000	18.694929
351.000000	14.054794
349.500000	9.934736
348.000000	6.596945
346.500000	4.089459
345.000000	2.398847
343.500000	1.317044
342.000000	0.687430
340.500000	0.335686
339.000000	0.145410
337.500000	0.081158
336.000000	0.048620
334.500000	0.042134
333.000000	0.046199
331.500000	0.054207
330.000000	0.044582
328.500000	0.056560
327.000000	0.059522
325.500000	0.041387
324.000000	0.048922
322.500000	0.048745
321.000000	0.061504
319.500000	0.028648
318.000000	0.005174
316.500000	-0.024134
315.000000	-0.026770
313.500000	-0.027268
312.000000	-0.028138
310.500000	-0.020622
309.000000	-0.020373
307.500000	-0.011345
306.000000	-0.003317
304.500000	0.001992
303.000000	-0.001902
301.500000	-0.005802
300.000000	0.000190
