PE UV       SUBTECH     SPECTRUM    ASCII       PEDS        4.00        
   -1
Sample3.Sample.Raw.asc
21/03/26
11:29:57.00
21/03/26
11:29:57.00
Administrator

300.000000
1
Lambda 850
850L1710193
PerkinElmer UV WinLab 6.4.0.973 / 2.02.06 Lambda 800 UV/VIS, Jan 28 2016 16:58:34

0
0
2
0
0
UV/VIS
1
1
1
RBeamAtt,SBeamAtt,60mm sphere
0
0
0
0
Fix
 
0
0.2
0
0
0
 
 
 
0
 
0
340
0
Front
100
 
S:100 R:100
 
0
0
0
 
0
 
 
 
0
 
 
0
0
0
0
0
 
 
 
 
0
0


0
0
#HDR
-1
-1
#GR
nm
%T
1.0
0.0
750.000000
-1.500000
301
8
75.852074
-0.037923
#DATA
750.000000	75.531688
748.500000	75.808620
747.000000	75.581073
745.500000	75.748681
744.000000	75.659834
742.500000	75.744097
741.000000	75.745870
739.500000	75.691607
738.000000	75.852074
736.500000	75.615888
735.000000	75.732161
733.500000	75.746174
732.000000	75.705300
730.500000	75.649632
729.000000	75.643462
727.500000	75.686608
726.000000	75.634094
724.500000	75.533799
723.000000	75.672245
721.500000	75.513505
720.000000	75.587977
718.500000	75.649509
717.000000	75.590673
715.500000	75.537677
714.000000	75.556918
712.500000	75.603198
711.000000	75.490973
709.500000	75.527284
708.000000	75.550540
706.500000	75.580383
705.000000	75.549142
703.500000	75.538911
702.000000	75.584639
700.500000	75.584125
699.000000	75.531819
697.500000	75.538423
696.000000	75.434183
694.500000	75.466421
693.000000	75.344765
691.500000	75.314345
690.000000	75.166971
688.500000	75.382343
687.000000	75.405450
685.500000	75.378067
684.000000	75.314878
682.500000	75.349397
681.000000	75.415179
679.500000	75.369175
678.000000	75.321331
676.500000	75.275036
675.000000	75.263879
673.500000	75.334576
672.000000	75.296898
670.500000	75.310334
669.000000	75.229477
667.500000	75.225079
666.000000	75.303733
664.500000	75.263841
663.000000	75.220047
661.500000	75.164898
660.000000	75.248442
658.500000	75.137855
657.000000	75.206774
655.500000	75.163408
654.000000	75.134929
652.500000	75.148839
651.000000	75.136713
649.500000	75.070680
648.000000	75.074724
646.500000	75.138913
645.000000	75.068040
643.500000	75.113548
642.000000	75.089017
640.500000	75.026420
639.000000	75.011484
637.500000	75.056144
636.000000	75.080006
634.500000	75.046334
633.000000	74.985439
631.500000	74.928018
630.000000	74.959393
628.500000	74.984893
627.000000	74.953179
625.500000	74.926515
624.000000	74.905750
622.500000	74.889094
621.000000	74.905171
619.500000	74.922121
618.000000	74.836565
616.500000	74.844022
615.000000	74.849662
613.500000	74.746155
612.000000	74.766135
610.500000	74.752559
609.000000	74.765420
607.500000	74.750443
606.000000	74.680709
604.500000	74.712316
603.000000	74.705949
601.500000	74.628101
600.000000	74.628309
598.500000	74.628908
597.000000	74.612332
595.500000	74.651124
594.000000	74.622644
592.500000	74.570501
591.000000	74.591987
589.500000	74.592085
588.000000	74.558055
586.500000	74.540074
585.000000	74.543109
583.500000	74.526829
582.000000	74.506583
580.500000	74.486437
579.000000	74.476460
577.500000	74.438280
576.000000	74.454187
574.500000	74.432426
573.000000	74.417618
571.500000	74.371777
570.000000	74.303192
568.500000	74.311282
567.000000	74.345056
565.500000	74.295348
564.000000	74.221129
562.500000	74.287095
561.000000	74.466117
559.500000	74.539332
558.000000	74.486874
556.500000	74.448752
555.000000	74.461884
553.500000	74.445961
552.000000	74.443293
550.500000	74.461677
549.000000	74.463757
547.500000	74.469025
546.000000	74.459619
544.500000	74.461615
543.000000	74.475895
541.500000	74.469259
540.000000	74.467332
538.500000	74.456064
537.000000	74.439976
535.500000	74.442647
534.000000	74.502096
532.500000	74.535654
531.000000	74.530330
529.500000	74.554158
528.000000	74.515615
526.500000	74.502341
525.000000	74.489120
523.500000	74.437220
522.000000	74.423279
520.500000	74.374751
519.000000	74.277391
517.500000	74.168514
516.000000	74.014233
514.500000	73.812686
513.000000	73.601350
511.500000	73.373329
510.000000	73.127032
508.500000	72.893090
507.000000	72.667934
505.500000	72.479204
504.000000	72.335774
502.500000	72.195045
501.000000	72.142911
499.500000	72.182030
498.000000	72.234210
496.500000	72.248679
495.000000	72.316331
493.500000	72.413213
492.000000	72.542226
490.500000	72.690722
489.000000	72.769688
487.500000	72.939822
486.000000	73.155536
484.500000	73.361024
483.000000	73.705782
481.500000	74.133211
480.000000	74.292516
478.500000	74.074563
477.000000	73.837327
475.500000	73.725893
474.000000	73.620328
472.500000	73.556974
471.000000	73.430089
469.500000	73.191730
468.000000	72.972506
466.500000	72.733048
465.000000	72.464738
463.500000	72.209448
462.000000	72.011149
460.500000	71.883489
459.000000	71.783265
457.500000	71.679510
456.000000	71.632894
454.500000	71.606567
453.000000	71.606755
451.500000	71.626734
450.000000	71.643472
448.500000	71.634236
447.000000	71.580953
445.500000	71.659071
444.000000	71.861316
442.500000	72.069162
441.000000	71.959702
439.500000	71.886401
438.000000	71.841429
436.500000	71.763135
435.000000	71.717187
433.500000	71.695074
432.000000	71.649034
430.500000	71.518874
429.000000	71.423577
427.500000	71.350660
426.000000	71.368334
424.500000	71.300740
423.000000	71.236991
421.500000	71.250376
420.000000	71.164145
418.500000	71.049933
417.000000	71.029521
415.500000	70.998792
414.000000	70.821249
412.500000	70.823550
411.000000	70.715676
409.500000	70.698593
408.000000	70.563718
406.500000	70.500199
405.000000	70.451361
403.500000	70.314772
402.000000	70.276688
400.500000	70.265337
399.000000	70.211130
397.500000	70.111231
396.000000	69.971060
394.500000	69.839513
393.000000	69.765944
391.500000	69.582920
390.000000	69.559395
388.500000	69.321084
387.000000	69.304461
385.500000	69.118353
384.000000	68.986603
382.500000	68.745885
381.000000	68.455410
379.500000	68.179543
378.000000	68.094858
376.500000	68.720148
375.000000	68.919167
373.500000	68.005431
372.000000	67.054701
370.500000	66.091088
369.000000	65.143350
367.500000	63.729115
366.000000	62.113548
364.500000	60.416354
363.000000	58.113202
361.500000	55.606738
360.000000	52.599831
358.500000	49.080712
357.000000	44.950024
355.500000	40.302284
354.000000	35.289100
352.500000	29.922029
351.000000	24.361390
349.500000	19.002866
348.000000	13.957802
346.500000	9.674334
345.000000	6.148987
343.500000	3.516915
342.000000	1.795390
340.500000	0.779416
339.000000	0.252943
337.500000	0.038162
336.000000	-0.022929
334.500000	-0.024518
333.000000	-0.037161
331.500000	-0.035274
330.000000	-0.035019
328.500000	-0.033372
327.000000	-0.028230
325.500000	-0.024167
324.000000	-0.033609
322.500000	-0.023266
321.000000	-0.034098
319.500000	-0.023020
318.000000	-0.002634
316.500000	-0.032797
315.000000	-0.035142
313.500000	-0.037923
312.000000	-0.033042
310.500000	-0.028452
309.000000	-0.019704
307.500000	-0.015419
306.000000	-0.004359
304.500000	-0.007977
303.000000	-0.004938
301.500000	-0.008839
300.000000	-0.008566
