PE UV       SUBTECH     SPECTRUM    ASCII       PEDS        4.00        
   -1
Sample124.Sample.Raw.asc
20/12/17
16:30:25.00
20/12/17
16:30:25.00
Administrator

300.000000
1
Lambda 850
850L1710193
PerkinElmer UV WinLab 6.4.0.973 / 2.02.06 Lambda 800 UV/VIS, Jan 28 2016 16:58:34

0
0
2
0
0
UV/VIS
1
1
1
RBeamAtt,SBeamAtt,60mm sphere
0
0
0
0
Fix
 
0
0.2
0
0
0
 
 
 
0
 
0
319.2
0
Front
100
 
S:100 R:100
 
0
0
0
 
0
 
 
 
0
 
 
0
0
0
0
0
 
 
 
 
0
0


0
0
#HDR
-1
-1
#GR
nm
%T
1.0
0.0
750.000000
-1.500000
301
8
74.367802
-0.030208
#DATA
750.000000	74.128288
748.500000	74.360516
747.000000	74.305281
745.500000	74.367802
744.000000	74.278353
742.500000	74.079480
741.000000	74.254489
739.500000	74.223713
738.000000	74.180969
736.500000	74.136818
735.000000	74.280516
733.500000	74.282322
732.000000	74.344864
730.500000	74.096825
729.000000	74.185426
727.500000	74.050697
726.000000	74.117054
724.500000	74.217263
723.000000	74.195890
721.500000	74.146496
720.000000	74.104935
718.500000	74.079090
717.000000	74.178580
715.500000	74.095807
714.000000	73.994447
712.500000	74.064667
711.000000	74.063249
709.500000	73.987803
708.000000	74.076352
706.500000	74.049635
705.000000	73.984141
703.500000	74.063442
702.000000	74.009774
700.500000	74.028184
699.000000	73.906560
697.500000	73.914584
696.000000	73.883651
694.500000	73.902273
693.000000	73.883256
691.500000	73.882956
690.000000	73.795124
688.500000	73.880319
687.000000	73.875177
685.500000	73.963909
684.000000	73.909782
682.500000	73.840836
681.000000	73.780822
679.500000	73.724986
678.000000	73.859728
676.500000	73.820668
675.000000	73.803908
673.500000	73.674842
672.000000	73.739934
670.500000	73.718914
669.000000	73.660313
667.500000	73.709088
666.000000	73.747950
664.500000	73.705838
663.000000	73.749213
661.500000	73.724926
660.000000	73.634667
658.500000	73.607901
657.000000	73.599469
655.500000	73.617058
654.000000	73.601333
652.500000	73.583975
651.000000	73.598347
649.500000	73.573888
648.000000	73.499141
646.500000	73.551095
645.000000	73.540788
643.500000	73.443436
642.000000	73.447460
640.500000	73.451273
639.000000	73.407550
637.500000	73.371132
636.000000	73.380502
634.500000	73.379707
633.000000	73.362725
631.500000	73.390283
630.000000	73.352983
628.500000	73.337250
627.000000	73.296953
625.500000	73.254354
624.000000	73.281031
622.500000	73.239396
621.000000	73.267944
619.500000	73.266994
618.000000	73.178643
616.500000	73.154108
615.000000	73.144347
613.500000	73.122428
612.000000	73.085229
610.500000	73.065715
609.000000	73.028231
607.500000	73.050094
606.000000	73.056707
604.500000	73.027258
603.000000	73.012868
601.500000	72.990127
600.000000	72.988785
598.500000	72.972098
597.000000	72.924025
595.500000	72.862448
594.000000	72.824942
592.500000	72.814524
591.000000	72.815218
589.500000	72.806979
588.000000	72.756256
586.500000	72.744510
585.000000	72.720725
583.500000	72.705779
582.000000	72.693342
580.500000	72.646299
579.000000	72.644535
577.500000	72.595126
576.000000	72.550514
574.500000	72.524685
573.000000	72.486589
571.500000	72.452599
570.000000	72.408291
568.500000	72.366569
567.000000	72.308563
565.500000	72.272870
564.000000	72.226377
562.500000	72.251586
561.000000	72.424700
559.500000	72.503685
558.000000	72.484297
556.500000	72.462112
555.000000	72.404677
553.500000	72.360099
552.000000	72.376531
550.500000	72.354801
549.000000	72.299828
547.500000	72.300252
546.000000	72.301147
544.500000	72.275982
543.000000	72.234855
541.500000	72.182941
540.000000	72.137979
538.500000	72.120916
537.000000	72.121292
535.500000	72.143190
534.000000	72.122929
532.500000	72.078594
531.000000	72.065297
529.500000	72.031982
528.000000	71.989118
526.500000	71.964790
525.000000	71.943123
523.500000	71.883209
522.000000	71.806743
520.500000	71.732935
519.000000	71.625888
517.500000	71.476796
516.000000	71.316754
514.500000	71.140264
513.000000	70.904464
511.500000	70.659907
510.000000	70.407702
508.500000	70.180678
507.000000	69.944870
505.500000	69.767945
504.000000	69.655504
502.500000	69.595065
501.000000	69.587984
499.500000	69.578162
498.000000	69.638270
496.500000	69.752355
495.000000	69.896872
493.500000	70.023173
492.000000	70.140037
490.500000	70.240112
489.000000	70.455201
487.500000	70.581140
486.000000	70.689967
484.500000	70.882369
483.000000	71.135889
481.500000	71.428464
480.000000	71.488243
478.500000	71.186799
477.000000	70.916498
475.500000	70.781438
474.000000	70.620039
472.500000	70.459662
471.000000	70.272449
469.500000	70.040098
468.000000	69.782289
466.500000	69.519459
465.000000	69.232006
463.500000	68.973555
462.000000	68.772310
460.500000	68.652602
459.000000	68.537163
457.500000	68.423723
456.000000	68.436522
454.500000	68.416495
453.000000	68.462124
451.500000	68.446109
450.000000	68.466094
448.500000	68.512198
447.000000	68.548057
445.500000	68.593457
444.000000	68.791892
442.500000	68.954239
441.000000	68.806978
439.500000	68.733169
438.000000	68.608800
436.500000	68.563366
435.000000	68.512804
433.500000	68.447538
432.000000	68.337984
430.500000	68.317200
429.000000	68.180119
427.500000	68.118089
426.000000	68.045585
424.500000	67.973261
423.000000	67.853360
421.500000	67.885837
420.000000	67.745580
418.500000	67.599017
417.000000	67.560606
415.500000	67.460272
414.000000	67.304128
412.500000	67.264057
411.000000	67.133339
409.500000	67.033384
408.000000	66.974655
406.500000	66.859944
405.000000	66.677541
403.500000	66.520041
402.000000	66.448615
400.500000	66.302765
399.000000	66.184111
397.500000	66.022302
396.000000	65.915892
394.500000	65.727952
393.000000	65.500981
391.500000	65.405167
390.000000	65.088642
388.500000	64.880415
387.000000	64.641987
385.500000	64.311264
384.000000	64.117513
382.500000	63.888141
381.000000	63.523177
379.500000	63.174204
378.000000	62.832529
376.500000	63.152522
375.000000	63.167004
373.500000	62.153858
372.000000	60.884857
370.500000	59.626248
369.000000	58.233824
367.500000	56.571227
366.000000	54.589737
364.500000	52.364670
363.000000	49.677297
361.500000	46.382786
360.000000	42.790936
358.500000	38.579514
357.000000	33.944650
355.500000	28.938467
354.000000	23.710955
352.500000	18.623640
351.000000	13.860910
349.500000	9.778946
348.000000	6.488340
346.500000	4.018999
345.000000	2.340148
343.500000	1.301159
342.000000	0.655591
340.500000	0.320131
339.000000	0.137416
337.500000	0.082011
336.000000	0.057062
334.500000	0.043876
333.000000	0.064379
331.500000	0.065497
330.000000	0.060369
328.500000	0.055159
327.000000	0.061112
325.500000	0.069141
324.000000	0.069784
322.500000	0.081623
321.000000	0.075712
319.500000	0.057584
318.000000	-0.000282
316.500000	-0.030208
315.000000	-0.024115
313.500000	-0.027888
312.000000	-0.023880
310.500000	-0.021352
309.000000	-0.018484
307.500000	-0.016928
306.000000	-0.007388
304.500000	-0.001990
303.000000	-0.006074
301.500000	-0.009402
300.000000	-0.008561
