PE UV       SUBTECH     SPECTRUM    ASCII       PEDS        4.00        
   -1
Sample40.Sample.Raw.asc
20/12/15
12:19:05.00
20/12/15
12:19:05.00
Administrator

300.000000
1
Lambda 850
850L1710193
PerkinElmer UV WinLab 6.4.0.973 / 2.02.06 Lambda 800 UV/VIS, Jan 28 2016 16:58:34

0
0
2
0
0
UV/VIS
1
1
1
RBeamAtt,SBeamAtt,60mm sphere
0
0
0
0
Fix
 
0
0.2
0
0
0
 
 
 
0
 
0
319.2
0
Front
100
 
S:100 R:100
 
0
0
0
 
0
 
 
 
0
 
 
0
0
0
0
0
 
 
 
 
0
0


0
0
#HDR
-1
-1
#GR
nm
%T
1.0
0.0
750.000000
-1.500000
301
8
74.487464
-0.042555
#DATA
750.000000	74.237890
748.500000	74.389026
747.000000	74.207761
745.500000	74.465251
744.000000	74.487464
742.500000	74.333546
741.000000	74.245410
739.500000	74.241752
738.000000	74.398534
736.500000	74.400841
735.000000	74.410429
733.500000	74.281748
732.000000	74.307795
730.500000	74.322787
729.000000	74.379337
727.500000	74.235731
726.000000	74.332486
724.500000	74.245725
723.000000	74.189924
721.500000	74.323750
720.000000	74.206080
718.500000	74.108728
717.000000	74.166477
715.500000	74.129452
714.000000	74.196239
712.500000	74.156203
711.000000	74.107802
709.500000	74.144385
708.000000	74.071328
706.500000	74.098413
705.000000	74.068952
703.500000	74.040565
702.000000	74.074714
700.500000	73.999038
699.000000	74.006782
697.500000	73.997070
696.000000	73.944453
694.500000	73.947396
693.000000	73.925648
691.500000	73.913320
690.000000	73.816855
688.500000	74.033973
687.000000	73.938728
685.500000	73.914413
684.000000	73.852952
682.500000	73.973783
681.000000	73.918584
679.500000	73.830334
678.000000	73.854132
676.500000	73.858991
675.000000	73.848530
673.500000	73.785112
672.000000	73.849539
670.500000	73.790622
669.000000	73.713918
667.500000	73.728212
666.000000	73.766145
664.500000	73.677376
663.000000	73.761432
661.500000	73.782259
660.000000	73.669234
658.500000	73.680359
657.000000	73.678563
655.500000	73.696894
654.000000	73.611517
652.500000	73.539331
651.000000	73.683527
649.500000	73.598392
648.000000	73.561285
646.500000	73.550365
645.000000	73.514952
643.500000	73.533331
642.000000	73.546519
640.500000	73.534004
639.000000	73.462510
637.500000	73.443759
636.000000	73.458171
634.500000	73.435128
633.000000	73.422828
631.500000	73.390429
630.000000	73.376674
628.500000	73.311418
627.000000	73.310352
625.500000	73.313894
624.000000	73.291290
622.500000	73.246049
621.000000	73.248928
619.500000	73.268150
618.000000	73.236319
616.500000	73.196043
615.000000	73.182833
613.500000	73.135791
612.000000	73.108687
610.500000	73.137584
609.000000	73.102602
607.500000	73.074528
606.000000	73.058156
604.500000	72.987868
603.000000	72.994025
601.500000	72.992156
600.000000	72.958095
598.500000	72.952212
597.000000	72.899494
595.500000	72.826133
594.000000	72.844528
592.500000	72.827818
591.000000	72.815443
589.500000	72.840997
588.000000	72.838584
586.500000	72.757809
585.000000	72.698833
583.500000	72.684085
582.000000	72.662741
580.500000	72.659616
579.000000	72.575746
577.500000	72.559695
576.000000	72.532586
574.500000	72.483790
573.000000	72.495179
571.500000	72.475973
570.000000	72.416887
568.500000	72.396190
567.000000	72.358882
565.500000	72.244770
564.000000	72.231436
562.500000	72.234403
561.000000	72.354741
559.500000	72.483516
558.000000	72.464748
556.500000	72.459467
555.000000	72.437599
553.500000	72.385543
552.000000	72.362609
550.500000	72.335961
549.000000	72.310844
547.500000	72.311034
546.000000	72.284787
544.500000	72.235287
543.000000	72.206890
541.500000	72.206634
540.000000	72.181994
538.500000	72.152628
537.000000	72.148124
535.500000	72.134064
534.000000	72.081153
532.500000	72.046283
531.000000	72.016833
529.500000	71.992355
528.000000	71.984728
526.500000	71.962494
525.000000	71.908062
523.500000	71.847825
522.000000	71.796773
520.500000	71.705190
519.000000	71.578799
517.500000	71.453294
516.000000	71.304070
514.500000	71.136420
513.000000	70.894645
511.500000	70.628976
510.000000	70.374133
508.500000	70.141239
507.000000	69.953366
505.500000	69.774229
504.000000	69.594682
502.500000	69.512476
501.000000	69.526168
499.500000	69.575676
498.000000	69.665357
496.500000	69.767665
495.000000	69.852411
493.500000	69.968000
492.000000	70.108793
490.500000	70.301510
489.000000	70.391586
487.500000	70.501474
486.000000	70.646192
484.500000	70.804591
483.000000	71.015180
481.500000	71.363531
480.000000	71.431139
478.500000	71.153199
477.000000	70.881960
475.500000	70.680594
474.000000	70.567843
472.500000	70.406184
471.000000	70.223269
469.500000	70.019628
468.000000	69.761449
466.500000	69.446138
465.000000	69.164357
463.500000	68.922787
462.000000	68.699239
460.500000	68.562965
459.000000	68.469246
457.500000	68.383964
456.000000	68.335575
454.500000	68.367360
453.000000	68.383792
451.500000	68.380853
450.000000	68.415653
448.500000	68.402925
447.000000	68.353709
445.500000	68.406947
444.000000	68.717619
442.500000	68.791978
441.000000	68.711264
439.500000	68.620901
438.000000	68.543238
436.500000	68.483448
435.000000	68.399259
433.500000	68.367314
432.000000	68.245259
430.500000	68.155833
429.000000	68.109360
427.500000	68.090374
426.000000	67.948519
424.500000	67.862607
423.000000	67.844735
421.500000	67.752255
420.000000	67.652609
418.500000	67.566936
417.000000	67.403956
415.500000	67.336532
414.000000	67.189431
412.500000	67.130169
411.000000	67.015801
409.500000	66.963683
408.000000	66.782532
406.500000	66.750323
405.000000	66.591276
403.500000	66.383155
402.000000	66.243547
400.500000	66.175796
399.000000	65.984483
397.500000	65.772507
396.000000	65.623198
394.500000	65.550284
393.000000	65.413204
391.500000	65.180106
390.000000	65.009465
388.500000	64.716342
387.000000	64.479244
385.500000	64.194237
384.000000	63.959274
382.500000	63.552657
381.000000	63.233547
379.500000	62.814659
378.000000	62.603277
376.500000	62.851132
375.000000	62.736362
373.500000	61.744434
372.000000	60.627624
370.500000	59.198910
369.000000	57.811601
367.500000	56.144544
366.000000	54.038296
364.500000	51.657744
363.000000	48.764933
361.500000	45.584494
360.000000	41.787956
358.500000	37.569126
357.000000	32.880373
355.500000	27.807120
354.000000	22.613012
352.500000	17.584468
351.000000	13.009897
349.500000	9.033824
348.000000	5.936635
346.500000	3.655091
345.000000	2.115976
343.500000	1.154293
342.000000	0.585568
340.500000	0.279369
339.000000	0.127873
337.500000	0.081372
336.000000	0.049879
334.500000	0.047709
333.000000	0.051470
331.500000	0.069681
330.000000	0.059624
328.500000	0.060620
327.000000	0.062316
325.500000	0.058762
324.000000	0.067412
322.500000	0.069287
321.000000	0.072768
319.500000	0.069286
318.000000	-0.006954
316.500000	-0.039075
315.000000	-0.042555
313.500000	-0.034660
312.000000	-0.037738
310.500000	-0.024007
309.000000	-0.034449
307.500000	-0.024687
306.000000	-0.010415
304.500000	-0.014317
303.000000	-0.007507
301.500000	-0.017204
300.000000	-0.014557
