PE UV       SUBTECH     SPECTRUM    ASCII       PEDS        4.00        
   -1
Sample35.Sample.Raw.asc
20/12/15
12:01:09.00
20/12/15
12:01:09.00
Administrator

300.000000
1
Lambda 850
850L1710193
PerkinElmer UV WinLab 6.4.0.973 / 2.02.06 Lambda 800 UV/VIS, Jan 28 2016 16:58:34

0
0
2
0
0
UV/VIS
1
1
1
RBeamAtt,SBeamAtt,60mm sphere
0
0
0
0
Fix
 
0
0.2
0
0
0
 
 
 
0
 
0
319.2
0
Front
100
 
S:100 R:100
 
0
0
0
 
0
 
 
 
0
 
 
0
0
0
0
0
 
 
 
 
0
0


0
0
#HDR
-1
-1
#GR
nm
%T
1.0
0.0
750.000000
-1.500000
301
8
75.404163
-0.023904
#DATA
750.000000	75.051595
748.500000	75.293833
747.000000	75.212845
745.500000	75.404163
744.000000	75.319861
742.500000	75.326157
741.000000	75.264092
739.500000	75.317449
738.000000	75.360427
736.500000	75.336744
735.000000	75.300056
733.500000	75.274305
732.000000	75.274920
730.500000	75.272271
729.000000	75.199407
727.500000	75.218655
726.000000	75.187997
724.500000	75.215945
723.000000	75.308398
721.500000	75.252901
720.000000	75.080157
718.500000	75.149612
717.000000	75.112691
715.500000	75.106638
714.000000	75.219474
712.500000	75.133131
711.000000	75.110007
709.500000	74.976954
708.000000	74.966484
706.500000	75.130253
705.000000	75.020862
703.500000	75.025184
702.000000	74.969153
700.500000	74.959854
699.000000	74.991904
697.500000	74.896558
696.000000	74.873820
694.500000	74.915736
693.000000	74.795005
691.500000	74.749538
690.000000	74.740769
688.500000	74.873115
687.000000	74.956515
685.500000	74.893555
684.000000	74.844063
682.500000	74.898488
681.000000	74.851415
679.500000	74.765117
678.000000	74.728153
676.500000	74.760165
675.000000	74.786956
673.500000	74.726469
672.000000	74.782128
670.500000	74.772026
669.000000	74.682231
667.500000	74.696229
666.000000	74.794340
664.500000	74.739973
663.000000	74.701694
661.500000	74.735815
660.000000	74.687695
658.500000	74.620305
657.000000	74.642947
655.500000	74.645945
654.000000	74.561683
652.500000	74.536985
651.000000	74.591048
649.500000	74.530948
648.000000	74.529813
646.500000	74.531343
645.000000	74.465064
643.500000	74.457289
642.000000	74.456058
640.500000	74.406675
639.000000	74.391969
637.500000	74.391591
636.000000	74.441931
634.500000	74.364533
633.000000	74.333583
631.500000	74.341374
630.000000	74.327174
628.500000	74.299903
627.000000	74.321875
625.500000	74.311390
624.000000	74.239317
622.500000	74.217910
621.000000	74.232790
619.500000	74.209134
618.000000	74.178680
616.500000	74.182354
615.000000	74.192782
613.500000	74.137155
612.000000	74.125059
610.500000	74.101983
609.000000	74.054588
607.500000	74.080201
606.000000	74.052612
604.500000	73.979496
603.000000	73.990620
601.500000	73.994387
600.000000	73.967508
598.500000	73.924951
597.000000	73.893600
595.500000	73.861981
594.000000	73.839837
592.500000	73.855130
591.000000	73.837439
589.500000	73.801315
588.000000	73.811768
586.500000	73.770039
585.000000	73.732113
583.500000	73.717028
582.000000	73.737668
580.500000	73.747188
579.000000	73.660146
577.500000	73.606067
576.000000	73.591657
574.500000	73.550961
573.000000	73.555106
571.500000	73.569380
570.000000	73.536163
568.500000	73.503654
567.000000	73.476729
565.500000	73.383180
564.000000	73.372657
562.500000	73.371682
561.000000	73.509193
559.500000	73.645989
558.000000	73.598156
556.500000	73.618863
555.000000	73.613600
553.500000	73.574195
552.000000	73.588539
550.500000	73.564007
549.000000	73.536471
547.500000	73.537948
546.000000	73.535092
544.500000	73.521184
543.000000	73.486673
541.500000	73.504945
540.000000	73.519628
538.500000	73.501961
537.000000	73.513915
535.500000	73.520471
534.000000	73.503178
532.500000	73.528092
531.000000	73.481414
529.500000	73.454677
528.000000	73.473839
526.500000	73.446054
525.000000	73.422166
523.500000	73.401661
522.000000	73.362807
520.500000	73.275389
519.000000	73.173858
517.500000	73.028378
516.000000	72.854476
514.500000	72.685701
513.000000	72.451606
511.500000	72.191551
510.000000	71.929506
508.500000	71.673519
507.000000	71.433676
505.500000	71.214868
504.000000	71.057603
502.500000	70.947564
501.000000	70.900710
499.500000	70.895509
498.000000	70.915660
496.500000	70.952259
495.000000	70.987570
493.500000	71.065933
492.000000	71.204769
490.500000	71.330036
489.000000	71.405103
487.500000	71.554841
486.000000	71.697014
484.500000	71.963536
483.000000	72.294117
481.500000	72.684532
480.000000	72.837944
478.500000	72.597966
477.000000	72.362980
475.500000	72.200392
474.000000	72.126284
472.500000	71.997974
471.000000	71.859599
469.500000	71.665008
468.000000	71.431108
466.500000	71.128299
465.000000	70.863017
463.500000	70.583058
462.000000	70.372474
460.500000	70.196454
459.000000	70.071031
457.500000	69.936100
456.000000	69.876714
454.500000	69.857117
453.000000	69.847521
451.500000	69.823407
450.000000	69.822210
448.500000	69.809103
447.000000	69.727740
445.500000	69.776508
444.000000	70.090597
442.500000	70.127472
441.000000	70.093167
439.500000	70.031850
438.000000	69.955325
436.500000	69.901223
435.000000	69.803295
433.500000	69.770723
432.000000	69.649876
430.500000	69.585685
429.000000	69.577565
427.500000	69.605795
426.000000	69.490047
424.500000	69.353533
423.000000	69.324068
421.500000	69.345562
420.000000	69.223635
418.500000	69.044128
417.000000	68.994556
415.500000	68.906866
414.000000	68.820397
412.500000	68.784233
411.000000	68.642991
409.500000	68.553905
408.000000	68.475751
406.500000	68.362733
405.000000	68.288076
403.500000	68.108823
402.000000	67.993074
400.500000	67.937698
399.000000	67.765386
397.500000	67.631626
396.000000	67.546399
394.500000	67.373337
393.000000	67.207709
391.500000	67.090194
390.000000	66.965016
388.500000	66.775800
387.000000	66.565624
385.500000	66.386111
384.000000	66.116417
382.500000	65.879003
381.000000	65.648716
379.500000	65.330136
378.000000	65.250949
376.500000	65.610675
375.000000	65.909573
373.500000	64.915072
372.000000	64.015481
370.500000	62.993517
369.000000	61.850490
367.500000	60.523506
366.000000	59.064804
364.500000	57.190674
363.000000	54.993873
361.500000	52.501411
360.000000	49.555088
358.500000	46.133108
357.000000	42.115070
355.500000	37.603702
354.000000	32.730460
352.500000	27.729584
351.000000	22.448240
349.500000	17.346119
348.000000	12.729365
346.500000	8.694420
345.000000	5.471723
343.500000	3.119764
342.000000	1.579142
340.500000	0.675588
339.000000	0.267959
337.500000	0.102640
336.000000	0.064501
334.500000	0.051692
333.000000	0.057035
331.500000	0.069867
330.000000	0.065939
328.500000	0.066943
327.000000	0.076525
325.500000	0.065654
324.000000	0.070206
322.500000	0.066319
321.000000	0.077513
319.500000	0.074042
318.000000	0.008740
316.500000	-0.021416
315.000000	-0.020197
313.500000	-0.020382
312.000000	-0.023904
310.500000	-0.013274
309.000000	-0.012647
307.500000	-0.012580
306.000000	0.001041
304.500000	0.000284
303.000000	-0.008267
301.500000	-0.006939
300.000000	-0.004281
