PE UV       SUBTECH     SPECTRUM    ASCII       PEDS        4.00        
   -1
Sample38.Sample.Raw.asc
20/12/15
12:11:31.00
20/12/15
12:11:31.00
Administrator

300.000000
1
Lambda 850
850L1710193
PerkinElmer UV WinLab 6.4.0.973 / 2.02.06 Lambda 800 UV/VIS, Jan 28 2016 16:58:34

0
0
2
0
0
UV/VIS
1
1
1
RBeamAtt,SBeamAtt,60mm sphere
0
0
0
0
Fix
 
0
0.2
0
0
0
 
 
 
0
 
0
319.2
0
Front
100
 
S:100 R:100
 
0
0
0
 
0
 
 
 
0
 
 
0
0
0
0
0
 
 
 
 
0
0


0
0
#HDR
-1
-1
#GR
nm
%T
1.0
0.0
750.000000
-1.500000
301
8
74.467680
-0.039925
#DATA
750.000000	74.140486
748.500000	74.391200
747.000000	74.366539
745.500000	74.351568
744.000000	74.467680
742.500000	74.445297
741.000000	74.353872
739.500000	74.172534
738.000000	74.369511
736.500000	74.354851
735.000000	74.402337
733.500000	74.341810
732.000000	74.266524
730.500000	74.313956
729.000000	74.274823
727.500000	74.238324
726.000000	74.253769
724.500000	74.306734
723.000000	74.354809
721.500000	74.314814
720.000000	74.078673
718.500000	74.240037
717.000000	74.233994
715.500000	74.251255
714.000000	74.184033
712.500000	74.206729
711.000000	74.079319
709.500000	74.159356
708.000000	74.104783
706.500000	74.062565
705.000000	74.090955
703.500000	74.037712
702.000000	74.094518
700.500000	74.042812
699.000000	74.096680
697.500000	74.050830
696.000000	74.006830
694.500000	73.985490
693.000000	73.955029
691.500000	73.878644
690.000000	73.821428
688.500000	74.053768
687.000000	73.954756
685.500000	73.949417
684.000000	73.982576
682.500000	73.921942
681.000000	73.950361
679.500000	73.887970
678.000000	73.943131
676.500000	73.916174
675.000000	73.889196
673.500000	73.838466
672.000000	73.853476
670.500000	73.849462
669.000000	73.778702
667.500000	73.787355
666.000000	73.860752
664.500000	73.767499
663.000000	73.789265
661.500000	73.830976
660.000000	73.753490
658.500000	73.696045
657.000000	73.711922
655.500000	73.697387
654.000000	73.680777
652.500000	73.654900
651.000000	73.723649
649.500000	73.602912
648.000000	73.607648
646.500000	73.607596
645.000000	73.557216
643.500000	73.555375
642.000000	73.566349
640.500000	73.511547
639.000000	73.484642
637.500000	73.482844
636.000000	73.491935
634.500000	73.470532
633.000000	73.417725
631.500000	73.395615
630.000000	73.402276
628.500000	73.396708
627.000000	73.337040
625.500000	73.355738
624.000000	73.362396
622.500000	73.303382
621.000000	73.315919
619.500000	73.341199
618.000000	73.273581
616.500000	73.272636
615.000000	73.268246
613.500000	73.176333
612.000000	73.177270
610.500000	73.164714
609.000000	73.143574
607.500000	73.126239
606.000000	73.107718
604.500000	73.069735
603.000000	73.083927
601.500000	73.071110
600.000000	73.010727
598.500000	72.962193
597.000000	72.959620
595.500000	72.915916
594.000000	72.877350
592.500000	72.849263
591.000000	72.853465
589.500000	72.872513
588.000000	72.848571
586.500000	72.775214
585.000000	72.733721
583.500000	72.740829
582.000000	72.712325
580.500000	72.697162
579.000000	72.633713
577.500000	72.582944
576.000000	72.572406
574.500000	72.528633
573.000000	72.537985
571.500000	72.526304
570.000000	72.476435
568.500000	72.429008
567.000000	72.385595
565.500000	72.291157
564.000000	72.253692
562.500000	72.288390
561.000000	72.400091
559.500000	72.523297
558.000000	72.512114
556.500000	72.478944
555.000000	72.486633
553.500000	72.428219
552.000000	72.355676
550.500000	72.347101
549.000000	72.328089
547.500000	72.305835
546.000000	72.291473
544.500000	72.287782
543.000000	72.252597
541.500000	72.234519
540.000000	72.213764
538.500000	72.183574
537.000000	72.175850
535.500000	72.179945
534.000000	72.158632
532.500000	72.132749
531.000000	72.090574
529.500000	72.059169
528.000000	72.052970
526.500000	72.026214
525.000000	71.991028
523.500000	71.925851
522.000000	71.832776
520.500000	71.752256
519.000000	71.658737
517.500000	71.503410
516.000000	71.333874
514.500000	71.161114
513.000000	70.923466
511.500000	70.663646
510.000000	70.415726
508.500000	70.199741
507.000000	70.009564
505.500000	69.821181
504.000000	69.645414
502.500000	69.563879
501.000000	69.582064
499.500000	69.592279
498.000000	69.656512
496.500000	69.781648
495.000000	69.868384
493.500000	69.972968
492.000000	70.149747
490.500000	70.303253
489.000000	70.428961
487.500000	70.537714
486.000000	70.695859
484.500000	70.846565
483.000000	71.087705
481.500000	71.410880
480.000000	71.460063
478.500000	71.223620
477.000000	70.953737
475.500000	70.740065
474.000000	70.608308
472.500000	70.458503
471.000000	70.274913
469.500000	70.035477
468.000000	69.789129
466.500000	69.493952
465.000000	69.233293
463.500000	68.956562
462.000000	68.760192
460.500000	68.637808
459.000000	68.522791
457.500000	68.428116
456.000000	68.443963
454.500000	68.438689
453.000000	68.436526
451.500000	68.444711
450.000000	68.452938
448.500000	68.413438
447.000000	68.405464
445.500000	68.466849
444.000000	68.715945
442.500000	68.830120
441.000000	68.741884
439.500000	68.640787
438.000000	68.569676
436.500000	68.514780
435.000000	68.491119
433.500000	68.423141
432.000000	68.275778
430.500000	68.159365
429.000000	68.137818
427.500000	68.099812
426.000000	68.034506
424.500000	67.932101
423.000000	67.847943
421.500000	67.785723
420.000000	67.691162
418.500000	67.570321
417.000000	67.500838
415.500000	67.388619
414.000000	67.276223
412.500000	67.241297
411.000000	67.124132
409.500000	66.986256
408.000000	66.853354
406.500000	66.789814
405.000000	66.648682
403.500000	66.495393
402.000000	66.350232
400.500000	66.205623
399.000000	66.086036
397.500000	65.889453
396.000000	65.712269
394.500000	65.623817
393.000000	65.430643
391.500000	65.238655
390.000000	65.107758
388.500000	64.816745
387.000000	64.572343
385.500000	64.280110
384.000000	64.047879
382.500000	63.629440
381.000000	63.349303
379.500000	62.876944
378.000000	62.670525
376.500000	62.977163
375.000000	62.858934
373.500000	61.982778
372.000000	60.724223
370.500000	59.401187
369.000000	57.823071
367.500000	56.163874
366.000000	54.198879
364.500000	51.754380
363.000000	48.994036
361.500000	45.722761
360.000000	41.967750
358.500000	37.696645
357.000000	32.990025
355.500000	27.982041
354.000000	22.770080
352.500000	17.729418
351.000000	13.147512
349.500000	9.131554
348.000000	5.999014
346.500000	3.698907
345.000000	2.138365
343.500000	1.139540
342.000000	0.574309
340.500000	0.245072
339.000000	0.093453
337.500000	0.041056
336.000000	0.024061
334.500000	0.030386
333.000000	0.028193
331.500000	0.025330
330.000000	0.037335
328.500000	0.044628
327.000000	0.047364
325.500000	0.049357
324.000000	0.055029
322.500000	0.055281
321.000000	0.071279
319.500000	0.054925
318.000000	-0.001034
316.500000	-0.029024
315.000000	-0.039925
313.500000	-0.034847
312.000000	-0.030868
310.500000	-0.032385
309.000000	-0.030579
307.500000	-0.028281
306.000000	-0.015528
304.500000	-0.015549
303.000000	-0.016154
301.500000	-0.016824
300.000000	-0.023120
