PE UV       SUBTECH     SPECTRUM    ASCII       PEDS        4.00        
   -1
Sample39.Sample.Raw.asc
20/12/15
12:15:20.00
20/12/15
12:15:20.00
Administrator

300.000000
1
Lambda 850
850L1710193
PerkinElmer UV WinLab 6.4.0.973 / 2.02.06 Lambda 800 UV/VIS, Jan 28 2016 16:58:34

0
0
2
0
0
UV/VIS
1
1
1
RBeamAtt,SBeamAtt,60mm sphere
0
0
0
0
Fix
 
0
0.2
0
0
0
 
 
 
0
 
0
319.2
0
Front
100
 
S:100 R:100
 
0
0
0
 
0
 
 
 
0
 
 
0
0
0
0
0
 
 
 
 
0
0


0
0
#HDR
-1
-1
#GR
nm
%T
1.0
0.0
750.000000
-1.500000
301
8
75.573343
-0.022637
#DATA
750.000000	75.139596
748.500000	75.488835
747.000000	75.335632
745.500000	75.540921
744.000000	75.573343
742.500000	75.363273
741.000000	75.269741
739.500000	75.326969
738.000000	75.347815
736.500000	75.563615
735.000000	75.408902
733.500000	75.324572
732.000000	75.300896
730.500000	75.322260
729.000000	75.333331
727.500000	75.235828
726.000000	75.281792
724.500000	75.318816
723.000000	75.386092
721.500000	75.292380
720.000000	75.175428
718.500000	75.206572
717.000000	75.263325
715.500000	75.294628
714.000000	75.339098
712.500000	75.168035
711.000000	75.202374
709.500000	75.118442
708.000000	75.128144
706.500000	75.122187
705.000000	75.071550
703.500000	75.087207
702.000000	75.088955
700.500000	75.141469
699.000000	75.070299
697.500000	75.000897
696.000000	74.968975
694.500000	74.983278
693.000000	74.977087
691.500000	74.881878
690.000000	74.830752
688.500000	74.978222
687.000000	74.963466
685.500000	74.950315
684.000000	74.948907
682.500000	74.987511
681.000000	74.975000
679.500000	74.909043
678.000000	74.892886
676.500000	74.813908
675.000000	74.885013
673.500000	74.770890
672.000000	74.869802
670.500000	74.872965
669.000000	74.813029
667.500000	74.758488
666.000000	74.850842
664.500000	74.781013
663.000000	74.761548
661.500000	74.808028
660.000000	74.740417
658.500000	74.750313
657.000000	74.768661
655.500000	74.723779
654.000000	74.620344
652.500000	74.617727
651.000000	74.665949
649.500000	74.577383
648.000000	74.581684
646.500000	74.580515
645.000000	74.587990
643.500000	74.587497
642.000000	74.582854
640.500000	74.559017
639.000000	74.514064
637.500000	74.535588
636.000000	74.540175
634.500000	74.516278
633.000000	74.488339
631.500000	74.421230
630.000000	74.385871
628.500000	74.381405
627.000000	74.388102
625.500000	74.336019
624.000000	74.342145
622.500000	74.313795
621.000000	74.341146
619.500000	74.354573
618.000000	74.309758
616.500000	74.272634
615.000000	74.260882
613.500000	74.198875
612.000000	74.193229
610.500000	74.185435
609.000000	74.148320
607.500000	74.172818
606.000000	74.129387
604.500000	74.088157
603.000000	74.087368
601.500000	74.094296
600.000000	74.028472
598.500000	74.029138
597.000000	74.016492
595.500000	73.981280
594.000000	73.974755
592.500000	73.981245
591.000000	73.910845
589.500000	73.888849
588.000000	73.903548
586.500000	73.849971
585.000000	73.829766
583.500000	73.783092
582.000000	73.804165
580.500000	73.829127
579.000000	73.743428
577.500000	73.722807
576.000000	73.739148
574.500000	73.668592
573.000000	73.669256
571.500000	73.704777
570.000000	73.650226
568.500000	73.592789
567.000000	73.554891
565.500000	73.489137
564.000000	73.492014
562.500000	73.477267
561.000000	73.591318
559.500000	73.750476
558.000000	73.737861
556.500000	73.720211
555.000000	73.739571
553.500000	73.705937
552.000000	73.654482
550.500000	73.634643
549.000000	73.627234
547.500000	73.636897
546.000000	73.656838
544.500000	73.643344
543.000000	73.600114
541.500000	73.604029
540.000000	73.611555
538.500000	73.624260
537.000000	73.634807
535.500000	73.626920
534.000000	73.615312
532.500000	73.609360
531.000000	73.562165
529.500000	73.536751
528.000000	73.542741
526.500000	73.545597
525.000000	73.537492
523.500000	73.525181
522.000000	73.463301
520.500000	73.368531
519.000000	73.278323
517.500000	73.137364
516.000000	72.991279
514.500000	72.813465
513.000000	72.569282
511.500000	72.301836
510.000000	72.028620
508.500000	71.775671
507.000000	71.556224
505.500000	71.342437
504.000000	71.131846
502.500000	71.041543
501.000000	71.029098
499.500000	70.988686
498.000000	71.022546
496.500000	71.082740
495.000000	71.090526
493.500000	71.181845
492.000000	71.336419
490.500000	71.424753
489.000000	71.544302
487.500000	71.680351
486.000000	71.842770
484.500000	72.040738
483.000000	72.386815
481.500000	72.779480
480.000000	72.925550
478.500000	72.714332
477.000000	72.478240
475.500000	72.317916
474.000000	72.253936
472.500000	72.108538
471.000000	71.957213
469.500000	71.764690
468.000000	71.503811
466.500000	71.215264
465.000000	70.957845
463.500000	70.697941
462.000000	70.473340
460.500000	70.302981
459.000000	70.166315
457.500000	70.044609
456.000000	69.975702
454.500000	69.950835
453.000000	69.995310
451.500000	69.916109
450.000000	69.911376
448.500000	69.911064
447.000000	69.853707
445.500000	69.890547
444.000000	70.114713
442.500000	70.269480
441.000000	70.200461
439.500000	70.123139
438.000000	70.074335
436.500000	70.009669
435.000000	69.916502
433.500000	69.862871
432.000000	69.778761
430.500000	69.681889
429.000000	69.643406
427.500000	69.592059
426.000000	69.570133
424.500000	69.486112
423.000000	69.388401
421.500000	69.358409
420.000000	69.291018
418.500000	69.199640
417.000000	69.091947
415.500000	69.026989
414.000000	68.872115
412.500000	68.827832
411.000000	68.705772
409.500000	68.553135
408.000000	68.453373
406.500000	68.428896
405.000000	68.345137
403.500000	68.170831
402.000000	68.009755
400.500000	67.952350
399.000000	67.810521
397.500000	67.679352
396.000000	67.513746
394.500000	67.364421
393.000000	67.242941
391.500000	67.098356
390.000000	66.962081
388.500000	66.786847
387.000000	66.643637
385.500000	66.381643
384.000000	66.115432
382.500000	65.830980
381.000000	65.664791
379.500000	65.263987
378.000000	65.181363
376.500000	65.637682
375.000000	65.750093
373.500000	64.837901
372.000000	63.890295
370.500000	62.930283
369.000000	61.784037
367.500000	60.540010
366.000000	58.914160
364.500000	57.136287
363.000000	54.902360
361.500000	52.373190
360.000000	49.381881
358.500000	45.929609
357.000000	42.022273
355.500000	37.501810
354.000000	32.575134
352.500000	27.443539
351.000000	22.229270
349.500000	17.211154
348.000000	12.607460
346.500000	8.654194
345.000000	5.411374
343.500000	3.072276
342.000000	1.546195
340.500000	0.669857
339.000000	0.249639
337.500000	0.097554
336.000000	0.051730
334.500000	0.038630
333.000000	0.041362
331.500000	0.036000
330.000000	0.052658
328.500000	0.048347
327.000000	0.033433
325.500000	0.028962
324.000000	0.042272
322.500000	0.035154
321.000000	0.033871
319.500000	0.031333
318.000000	0.012311
316.500000	-0.021040
315.000000	-0.018694
313.500000	-0.022637
312.000000	-0.013646
310.500000	-0.013180
309.000000	-0.014251
307.500000	-0.006148
306.000000	-0.000852
304.500000	0.000379
303.000000	-0.000855
301.500000	-0.003327
300.000000	-0.001808
