PE UV       SUBTECH     SPECTRUM    ASCII       PEDS        4.00        
   -1
Sample142.Sample.Raw.asc
21/01/19
15:06:59.00
21/01/19
15:06:59.00
Administrator

300.000000
1
Lambda 850
850L1710193
PerkinElmer UV WinLab 6.4.0.973 / 2.02.06 Lambda 800 UV/VIS, Jan 28 2016 16:58:34

0
0
2
0
0
UV/VIS
1
1
1
RBeamAtt,SBeamAtt,60mm sphere
0
0
0
0
Fix
 
0
0.2
0
0
0
 
 
 
0
 
0
319.2
0
Front
100
 
S:100 R:100
 
0
0
0
 
0
 
 
 
0
 
 
0
0
0
0
0
 
 
 
 
0
0


0
0
#HDR
-1
-1
#GR
nm
%T
1.0
0.0
750.000000
-1.500000
301
8
74.466110
-0.028527
#DATA
750.000000	74.059164
748.500000	74.466110
747.000000	74.396916
745.500000	74.395802
744.000000	74.424385
742.500000	74.367807
741.000000	74.257395
739.500000	74.323582
738.000000	74.394587
736.500000	74.253508
735.000000	74.272775
733.500000	74.232777
732.000000	74.306283
730.500000	74.124362
729.000000	74.221518
727.500000	74.093757
726.000000	74.190434
724.500000	74.215308
723.000000	74.177573
721.500000	74.209220
720.000000	74.099547
718.500000	74.086827
717.000000	74.146305
715.500000	74.039603
714.000000	74.063719
712.500000	74.141636
711.000000	74.040833
709.500000	74.121717
708.000000	74.082928
706.500000	74.077301
705.000000	74.111897
703.500000	74.120038
702.000000	73.998125
700.500000	73.961908
699.000000	74.088807
697.500000	74.013296
696.000000	74.006270
694.500000	73.924008
693.000000	73.940077
691.500000	73.845331
690.000000	73.885091
688.500000	73.923069
687.000000	73.901247
685.500000	73.943835
684.000000	73.852672
682.500000	73.885988
681.000000	73.794127
679.500000	73.899468
678.000000	73.929750
676.500000	73.875384
675.000000	73.800747
673.500000	73.778842
672.000000	73.820084
670.500000	73.770377
669.000000	73.823217
667.500000	73.760970
666.000000	73.740737
664.500000	73.709687
663.000000	73.697372
661.500000	73.690647
660.000000	73.739693
658.500000	73.682245
657.000000	73.675513
655.500000	73.636409
654.000000	73.667139
652.500000	73.642469
651.000000	73.622095
649.500000	73.542107
648.000000	73.534515
646.500000	73.537016
645.000000	73.544009
643.500000	73.555493
642.000000	73.552564
640.500000	73.562422
639.000000	73.504425
637.500000	73.436663
636.000000	73.458159
634.500000	73.424713
633.000000	73.379222
631.500000	73.360270
630.000000	73.370704
628.500000	73.437969
627.000000	73.377815
625.500000	73.282707
624.000000	73.258041
622.500000	73.266687
621.000000	73.261472
619.500000	73.232067
618.000000	73.230524
616.500000	73.202017
615.000000	73.206122
613.500000	73.150795
612.000000	73.166938
610.500000	73.116717
609.000000	73.119305
607.500000	73.118872
606.000000	73.091818
604.500000	73.071194
603.000000	73.014713
601.500000	73.027988
600.000000	73.030617
598.500000	72.951735
597.000000	72.930802
595.500000	72.928435
594.000000	72.926192
592.500000	72.907755
591.000000	72.847830
589.500000	72.834139
588.000000	72.825861
586.500000	72.749579
585.000000	72.691902
583.500000	72.720310
582.000000	72.761276
580.500000	72.736932
579.000000	72.666287
577.500000	72.625607
576.000000	72.634892
574.500000	72.616788
573.000000	72.580204
571.500000	72.535473
570.000000	72.476276
568.500000	72.409486
567.000000	72.376186
565.500000	72.367421
564.000000	72.307072
562.500000	72.267316
561.000000	72.408871
559.500000	72.513099
558.000000	72.492676
556.500000	72.477242
555.000000	72.454465
553.500000	72.437493
552.000000	72.423441
550.500000	72.403432
549.000000	72.403318
547.500000	72.374215
546.000000	72.315913
544.500000	72.296934
543.000000	72.286973
541.500000	72.275193
540.000000	72.227527
538.500000	72.186522
537.000000	72.200021
535.500000	72.214450
534.000000	72.184511
532.500000	72.156117
531.000000	72.162075
529.500000	72.130315
528.000000	72.083515
526.500000	72.062644
525.000000	72.035568
523.500000	71.962468
522.000000	71.876771
520.500000	71.806208
519.000000	71.697440
517.500000	71.554178
516.000000	71.369923
514.500000	71.168380
513.000000	70.965206
511.500000	70.735761
510.000000	70.497098
508.500000	70.263067
507.000000	70.061560
505.500000	69.898530
504.000000	69.752583
502.500000	69.659093
501.000000	69.643095
499.500000	69.682341
498.000000	69.772805
496.500000	69.864796
495.000000	70.016488
493.500000	70.163299
492.000000	70.318674
490.500000	70.411912
489.000000	70.560558
487.500000	70.683240
486.000000	70.786010
484.500000	70.945148
483.000000	71.259334
481.500000	71.540326
480.000000	71.591803
478.500000	71.275984
477.000000	70.974547
475.500000	70.828132
474.000000	70.702180
472.500000	70.546755
471.000000	70.336082
469.500000	70.151927
468.000000	69.901208
466.500000	69.658289
465.000000	69.351809
463.500000	69.118100
462.000000	68.897489
460.500000	68.739842
459.000000	68.665084
457.500000	68.606027
456.000000	68.591278
454.500000	68.559535
453.000000	68.552824
451.500000	68.556848
450.000000	68.623979
448.500000	68.639433
447.000000	68.627513
445.500000	68.650336
444.000000	68.819837
442.500000	69.045662
441.000000	68.942543
439.500000	68.760831
438.000000	68.757540
436.500000	68.714800
435.000000	68.677759
433.500000	68.559866
432.000000	68.457320
430.500000	68.336109
429.000000	68.304429
427.500000	68.232260
426.000000	68.239446
424.500000	68.119082
423.000000	68.006165
421.500000	68.015619
420.000000	67.872905
418.500000	67.711563
417.000000	67.661329
415.500000	67.576044
414.000000	67.531998
412.500000	67.420914
411.000000	67.270528
409.500000	67.225920
408.000000	67.024227
406.500000	66.906785
405.000000	66.828097
403.500000	66.615931
402.000000	66.656361
400.500000	66.437182
399.000000	66.243205
397.500000	66.103161
396.000000	65.986805
394.500000	65.848986
393.000000	65.696866
391.500000	65.557185
390.000000	65.319014
388.500000	65.135552
387.000000	64.788985
385.500000	64.595282
384.000000	64.291769
382.500000	63.938668
381.000000	63.555510
379.500000	63.187810
378.000000	63.049348
376.500000	63.435331
375.000000	63.220850
373.500000	62.345540
372.000000	61.106487
370.500000	59.799568
369.000000	58.528415
367.500000	56.811509
366.000000	54.928024
364.500000	52.670353
363.000000	50.046117
361.500000	46.845919
360.000000	43.168827
358.500000	39.131968
357.000000	34.484722
355.500000	29.467199
354.000000	24.279513
352.500000	19.127714
351.000000	14.284387
349.500000	10.062394
348.000000	6.668080
346.500000	4.167324
345.000000	2.432888
343.500000	1.347948
342.000000	0.669623
340.500000	0.300067
339.000000	0.127184
337.500000	0.051194
336.000000	0.029027
334.500000	0.035924
333.000000	0.025360
331.500000	0.037625
330.000000	0.042738
328.500000	0.046251
327.000000	0.047568
325.500000	0.043323
324.000000	0.053622
322.500000	0.061345
321.000000	0.064566
319.500000	0.049504
318.000000	0.008946
316.500000	-0.026249
315.000000	-0.028418
313.500000	-0.028527
312.000000	-0.025923
310.500000	-0.024902
309.000000	-0.016720
307.500000	-0.012865
306.000000	-0.012898
304.500000	-0.012921
303.000000	-0.016856
301.500000	-0.011996
300.000000	-0.014104
