PE UV       SUBTECH     SPECTRUM    ASCII       PEDS        4.00        
   -1
100% or 0 Absorbance Baseline.Correction.Raw.asc
20/12/15
11:29:57.00
20/12/15
11:29:57.00
Administrator

300.000000
1
Lambda 850
850L1710193
PerkinElmer UV WinLab 6.4.0.973 / 2.02.06 Lambda 800 UV/VIS, Jan 28 2016 16:58:34

0
0
2
0
0
UV/VIS
0
1
1
RBeamAtt,SBeamAtt,60mm sphere
0
0
0
0
Fix
 
0
0.2
0
0
0
 
 
 
0
 
0
319.2
0
Front
100
 
S:100 R:100
 
0
0
0
 
0
 
 
 
0
 
 
0
0
0
0
0
 
 
 
 
0
0


0
0
#HDR
-1
-1
#GR
nm
%T
1.0
0.0
750.000000
-1.500000
301
8
124.430800
105.104000
#DATA
750.000000	124.430800
748.500000	124.203400
747.000000	124.198600
745.500000	123.941300
744.000000	123.835200
742.500000	123.935700
741.000000	123.915000
739.500000	123.956800
738.000000	123.693700
736.500000	123.506400
735.000000	123.568700
733.500000	123.539500
732.000000	123.572500
730.500000	123.425000
729.000000	123.428500
727.500000	123.448100
726.000000	123.353200
724.500000	123.260700
723.000000	123.176700
721.500000	123.101700
720.000000	123.227100
718.500000	123.068500
717.000000	123.080000
715.500000	122.985800
714.000000	122.884800
712.500000	122.905700
711.000000	122.879100
709.500000	122.908700
708.000000	122.850100
706.500000	122.741900
705.000000	122.711200
703.500000	122.697200
702.000000	122.702600
700.500000	122.677000
699.000000	122.583900
697.500000	122.580800
696.000000	122.642600
694.500000	122.591200
693.000000	122.527300
691.500000	122.563700
690.000000	122.468100
688.500000	122.255900
687.000000	122.284900
685.500000	122.270200
684.000000	122.276900
682.500000	122.103800
681.000000	122.101500
679.500000	122.146000
678.000000	122.136700
676.500000	122.063000
675.000000	121.970200
673.500000	122.015400
672.000000	121.929400
670.500000	121.856000
669.000000	121.944000
667.500000	121.909100
666.000000	121.766700
664.500000	121.833600
663.000000	121.795900
661.500000	121.723300
660.000000	121.772000
658.500000	121.762300
657.000000	121.704600
655.500000	121.668900
654.000000	121.715600
652.500000	121.745600
651.000000	121.628000
649.500000	121.676300
648.000000	121.648500
646.500000	121.613400
645.000000	121.617300
643.500000	121.574800
642.000000	121.534100
640.500000	121.569200
639.000000	121.543900
637.500000	121.530000
636.000000	121.432100
634.500000	121.454000
633.000000	121.481700
631.500000	121.468700
630.000000	121.472800
628.500000	121.468800
627.000000	121.401000
625.500000	121.404000
624.000000	121.367900
622.500000	121.395900
621.000000	121.358500
619.500000	121.287900
618.000000	121.301700
616.500000	121.290300
615.000000	121.293200
613.500000	121.354400
612.000000	121.313900
610.500000	121.267200
609.000000	121.304300
607.500000	121.252100
606.000000	121.262300
604.500000	121.295500
603.000000	121.242800
601.500000	121.209600
600.000000	121.218900
598.500000	121.224700
597.000000	121.244600
595.500000	121.291900
594.000000	121.258800
592.500000	121.238700
591.000000	121.243100
589.500000	121.209900
588.000000	121.159000
586.500000	121.227400
585.000000	121.245000
583.500000	121.245800
582.000000	121.208200
580.500000	121.187400
579.000000	121.274400
577.500000	121.295300
576.000000	121.295000
574.500000	121.311400
573.000000	121.244200
571.500000	121.199200
570.000000	121.248100
568.500000	121.277100
567.000000	121.286700
565.500000	121.371000
564.000000	121.317400
562.500000	121.324600
561.000000	121.278300
559.500000	121.164100
558.000000	121.183200
556.500000	121.166500
555.000000	121.139300
553.500000	121.145600
552.000000	121.165200
550.500000	121.184400
549.000000	121.195100
547.500000	121.173900
546.000000	121.154400
544.500000	121.152700
543.000000	121.208100
541.500000	121.211300
540.000000	121.184100
538.500000	121.178400
537.000000	121.182500
535.500000	121.183800
534.000000	121.193400
532.500000	121.203200
531.000000	121.236100
529.500000	121.231900
528.000000	121.186400
526.500000	121.154500
525.000000	121.134400
523.500000	121.113200
522.000000	121.102100
520.500000	121.105600
519.000000	121.092700
517.500000	121.117300
516.000000	121.123100
514.500000	121.082000
513.000000	121.094900
511.500000	121.139800
510.000000	121.173500
508.500000	121.191900
507.000000	121.177300
505.500000	121.189300
504.000000	121.223200
502.500000	121.198100
501.000000	121.116700
499.500000	121.060700
498.000000	120.970600
496.500000	120.860000
495.000000	120.828900
493.500000	120.781500
492.000000	120.623100
490.500000	120.463700
489.000000	120.402600
487.500000	120.309400
486.000000	120.201100
484.500000	120.074700
483.000000	119.959000
481.500000	119.750100
480.000000	119.625700
478.500000	119.707900
477.000000	119.816100
475.500000	119.890900
474.000000	119.857000
472.500000	119.839900
471.000000	119.859700
469.500000	119.881100
468.000000	119.940600
466.500000	120.048000
465.000000	120.112300
463.500000	120.209300
462.000000	120.258100
460.500000	120.251800
459.000000	120.272100
457.500000	120.266500
456.000000	120.216300
454.500000	120.147100
453.000000	120.035900
451.500000	119.953900
450.000000	119.888500
448.500000	119.849700
447.000000	119.793500
445.500000	119.695300
444.000000	119.419300
442.500000	119.289200
441.000000	119.205200
439.500000	119.182200
438.000000	119.149900
436.500000	119.045700
435.000000	118.985500
433.500000	118.939000
432.000000	118.943500
430.500000	118.914400
429.000000	118.770900
427.500000	118.666700
426.000000	118.622600
424.500000	118.570600
423.000000	118.445300
421.500000	118.319900
420.000000	118.279400
418.500000	118.190500
417.000000	118.081200
415.500000	117.879400
414.000000	117.752300
412.500000	117.432000
411.000000	117.232800
409.500000	116.952200
408.000000	116.629900
406.500000	116.229700
405.000000	115.841600
403.500000	115.468300
402.000000	115.105400
400.500000	114.660200
399.000000	114.324000
397.500000	113.984100
396.000000	113.617900
394.500000	113.282500
393.000000	112.967100
391.500000	112.727800
390.000000	112.418400
388.500000	112.248000
387.000000	112.031400
385.500000	111.908800
384.000000	111.731100
382.500000	111.612800
381.000000	111.354500
379.500000	111.263200
378.000000	111.229800
376.500000	111.083600
375.000000	109.731100
373.500000	109.757100
372.000000	109.836400
370.500000	109.750500
369.000000	109.852000
367.500000	109.672100
366.000000	109.662600
364.500000	109.585700
363.000000	109.601300
361.500000	109.498200
360.000000	109.291300
358.500000	109.238900
357.000000	109.163300
355.500000	109.135000
354.000000	109.061100
352.500000	108.934200
351.000000	108.781800
349.500000	108.769000
348.000000	108.691200
346.500000	108.637500
345.000000	108.536200
343.500000	108.447300
342.000000	108.356300
340.500000	108.172400
339.000000	108.076100
337.500000	108.145300
336.000000	108.060900
334.500000	107.946200
333.000000	107.829400
331.500000	107.776300
330.000000	107.675200
328.500000	107.554700
327.000000	107.676900
325.500000	107.381600
324.000000	107.398800
322.500000	107.812100
321.000000	107.465200
319.500000	107.236600
318.000000	106.412200
316.500000	106.462700
315.000000	106.449900
313.500000	106.463900
312.000000	106.259400
310.500000	106.221100
309.000000	105.954000
307.500000	105.724100
306.000000	105.618600
304.500000	105.471500
303.000000	105.238400
301.500000	105.206500
300.000000	105.104000
