PE UV       SUBTECH     SPECTRUM    ASCII       PEDS        4.00        
   -1
Sample76.Sample.Raw.asc
20/12/15
17:37:53.00
20/12/15
17:37:53.00
Administrator

300.000000
1
Lambda 850
850L1710193
PerkinElmer UV WinLab 6.4.0.973 / 2.02.06 Lambda 800 UV/VIS, Jan 28 2016 16:58:34

0
0
2
0
0
UV/VIS
1
1
1
RBeamAtt,SBeamAtt,60mm sphere
0
0
0
0
Fix
 
0
0.2
0
0
0
 
 
 
0
 
0
319.2
0
Front
100
 
S:100 R:100
 
0
0
0
 
0
 
 
 
0
 
 
0
0
0
0
0
 
 
 
 
0
0


0
0
#HDR
-1
-1
#GR
nm
%T
1.0
0.0
750.000000
-1.500000
301
8
75.590763
-0.030465
#DATA
750.000000	75.017780
748.500000	75.324086
747.000000	75.561722
745.500000	75.507743
744.000000	75.590763
742.500000	75.517550
741.000000	75.364840
739.500000	75.291540
738.000000	75.485050
736.500000	75.375061
735.000000	75.429570
733.500000	75.382648
732.000000	75.381546
730.500000	75.411796
729.000000	75.342036
727.500000	75.266768
726.000000	75.203273
724.500000	75.402792
723.000000	75.231585
721.500000	75.171632
720.000000	75.192185
718.500000	75.210837
717.000000	75.215830
715.500000	75.241188
714.000000	75.220827
712.500000	75.087600
711.000000	75.339100
709.500000	75.122048
708.000000	75.181667
706.500000	75.188009
705.000000	75.093577
703.500000	75.157160
702.000000	75.044481
700.500000	75.076867
699.000000	75.149504
697.500000	74.982509
696.000000	75.079417
694.500000	74.984718
693.000000	74.906260
691.500000	74.979458
690.000000	74.846974
688.500000	75.024156
687.000000	75.007894
685.500000	75.010684
684.000000	74.984219
682.500000	74.955517
681.000000	75.046727
679.500000	75.017700
678.000000	74.874374
676.500000	74.894574
675.000000	74.892404
673.500000	74.834821
672.000000	74.840786
670.500000	74.896838
669.000000	74.838111
667.500000	74.855857
666.000000	74.818144
664.500000	74.812386
663.000000	74.844229
661.500000	74.777885
660.000000	74.708663
658.500000	74.740476
657.000000	74.725227
655.500000	74.687465
654.000000	74.661988
652.500000	74.697922
651.000000	74.695316
649.500000	74.695982
648.000000	74.682307
646.500000	74.697197
645.000000	74.616099
643.500000	74.651905
642.000000	74.622436
640.500000	74.538807
639.000000	74.586151
637.500000	74.561843
636.000000	74.550389
634.500000	74.540029
633.000000	74.524259
631.500000	74.498151
630.000000	74.457240
628.500000	74.495082
627.000000	74.436987
625.500000	74.405545
624.000000	74.434468
622.500000	74.388404
621.000000	74.388301
619.500000	74.407377
618.000000	74.397305
616.500000	74.321535
615.000000	74.346309
613.500000	74.318957
612.000000	74.264332
610.500000	74.268404
609.000000	74.246672
607.500000	74.189969
606.000000	74.187464
604.500000	74.155661
603.000000	74.163153
601.500000	74.150692
600.000000	74.129599
598.500000	74.151790
597.000000	74.148753
595.500000	74.103867
594.000000	74.092347
592.500000	74.062364
591.000000	74.035585
589.500000	74.038176
588.000000	74.016996
586.500000	73.988140
585.000000	73.994152
583.500000	73.996265
582.000000	73.991897
580.500000	73.949913
579.000000	73.924560
577.500000	73.906768
576.000000	73.890534
574.500000	73.911171
573.000000	73.907872
571.500000	73.865863
570.000000	73.830064
568.500000	73.785594
567.000000	73.715711
565.500000	73.675980
564.000000	73.657595
562.500000	73.658135
561.000000	73.799770
559.500000	73.908737
558.000000	73.879903
556.500000	73.882913
555.000000	73.867139
553.500000	73.883810
552.000000	73.913079
550.500000	73.905717
549.000000	73.843751
547.500000	73.837412
546.000000	73.876362
544.500000	73.868818
543.000000	73.848528
541.500000	73.859767
540.000000	73.865088
538.500000	73.868665
537.000000	73.881393
535.500000	73.889855
534.000000	73.878813
532.500000	73.883193
531.000000	73.894310
529.500000	73.891463
528.000000	73.871205
526.500000	73.858909
525.000000	73.846825
523.500000	73.823202
522.000000	73.779358
520.500000	73.713223
519.000000	73.608065
517.500000	73.497727
516.000000	73.330740
514.500000	73.141417
513.000000	72.912726
511.500000	72.665728
510.000000	72.398889
508.500000	72.157636
507.000000	71.911785
505.500000	71.726146
504.000000	71.557078
502.500000	71.435317
501.000000	71.396044
499.500000	71.453975
498.000000	71.487926
496.500000	71.480132
495.000000	71.562170
493.500000	71.669505
492.000000	71.819419
490.500000	71.918770
489.000000	72.057759
487.500000	72.189037
486.000000	72.304752
484.500000	72.536391
483.000000	72.865261
481.500000	73.360687
480.000000	73.509145
478.500000	73.298557
477.000000	73.064084
475.500000	72.932103
474.000000	72.860094
472.500000	72.742234
471.000000	72.600091
469.500000	72.439522
468.000000	72.170844
466.500000	71.909137
465.000000	71.650570
463.500000	71.392908
462.000000	71.180498
460.500000	71.009575
459.000000	70.859324
457.500000	70.789249
456.000000	70.758924
454.500000	70.774531
453.000000	70.684745
451.500000	70.655755
450.000000	70.673912
448.500000	70.722372
447.000000	70.681677
445.500000	70.695130
444.000000	70.988398
442.500000	71.165612
441.000000	71.061435
439.500000	70.957328
438.000000	70.887241
436.500000	70.818485
435.000000	70.769376
433.500000	70.659754
432.000000	70.684175
430.500000	70.654225
429.000000	70.613989
427.500000	70.480615
426.000000	70.388587
424.500000	70.371993
423.000000	70.267296
421.500000	70.179685
420.000000	70.115910
418.500000	70.022246
417.000000	69.996753
415.500000	69.857043
414.000000	69.873230
412.500000	69.675594
411.000000	69.687217
409.500000	69.556492
408.000000	69.435940
406.500000	69.352093
405.000000	69.273411
403.500000	69.172876
402.000000	68.999347
400.500000	68.863225
399.000000	68.807820
397.500000	68.715013
396.000000	68.488146
394.500000	68.436181
393.000000	68.358781
391.500000	68.210868
390.000000	67.981322
388.500000	67.921176
387.000000	67.739976
385.500000	67.555413
384.000000	67.366064
382.500000	67.060041
381.000000	66.722583
379.500000	66.582400
378.000000	66.301630
376.500000	67.083500
375.000000	67.033595
373.500000	66.173795
372.000000	65.415693
370.500000	64.177111
369.000000	63.163972
367.500000	61.795909
366.000000	60.428086
364.500000	58.607864
363.000000	56.487854
361.500000	53.878014
360.000000	50.791395
358.500000	47.297975
357.000000	43.315460
355.500000	38.740703
354.000000	33.668164
352.500000	28.370928
351.000000	22.992780
349.500000	17.795157
348.000000	12.972997
346.500000	8.884935
345.000000	5.545410
343.500000	3.140045
342.000000	1.575800
340.500000	0.658902
339.000000	0.240622
337.500000	0.085420
336.000000	0.029635
334.500000	0.027656
333.000000	0.022035
331.500000	0.031188
330.000000	0.038464
328.500000	0.041143
327.000000	0.029993
325.500000	0.032644
324.000000	0.042691
322.500000	0.035070
321.000000	0.031777
319.500000	0.027528
318.000000	-0.000282
316.500000	-0.029957
315.000000	-0.026018
313.500000	-0.030465
312.000000	-0.030303
310.500000	-0.023258
309.000000	-0.020185
307.500000	-0.017868
306.000000	-0.010803
304.500000	-0.010909
303.000000	-0.013219
301.500000	-0.015884
300.000000	-0.017023
