PE UV       SUBTECH     SPECTRUM    ASCII       PEDS        4.00        
   -1
Sample75.Sample.Raw.asc
20/12/15
17:34:48.00
20/12/15
17:34:48.00
Administrator

300.000000
1
Lambda 850
850L1710193
PerkinElmer UV WinLab 6.4.0.973 / 2.02.06 Lambda 800 UV/VIS, Jan 28 2016 16:58:34

0
0
2
0
0
UV/VIS
1
1
1
RBeamAtt,SBeamAtt,60mm sphere
0
0
0
0
Fix
 
0
0.2
0
0
0
 
 
 
0
 
0
319.2
0
Front
100
 
S:100 R:100
 
0
0
0
 
0
 
 
 
0
 
 
0
0
0
0
0
 
 
 
 
0
0


0
0
#HDR
-1
-1
#GR
nm
%T
1.0
0.0
750.000000
-1.500000
301
8
74.199258
-0.025355
#DATA
750.000000	73.670767
748.500000	74.125105
747.000000	74.039008
745.500000	74.134145
744.000000	74.199258
742.500000	74.070034
741.000000	74.020173
739.500000	74.012317
738.000000	74.086394
736.500000	74.108460
735.000000	73.993569
733.500000	73.977412
732.000000	73.892054
730.500000	73.941545
729.000000	73.986049
727.500000	73.839875
726.000000	73.916985
724.500000	74.101411
723.000000	73.829744
721.500000	73.813016
720.000000	73.822272
718.500000	73.948580
717.000000	73.835330
715.500000	73.881837
714.000000	73.933249
712.500000	73.867046
711.000000	73.955397
709.500000	73.778966
708.000000	73.802192
706.500000	73.864836
705.000000	73.792228
703.500000	73.825757
702.000000	73.723599
700.500000	73.679040
699.000000	73.760149
697.500000	73.631975
696.000000	73.756665
694.500000	73.660719
693.000000	73.640183
691.500000	73.692280
690.000000	73.462269
688.500000	73.695859
687.000000	73.681812
685.500000	73.688045
684.000000	73.654361
682.500000	73.663990
681.000000	73.636116
679.500000	73.643070
678.000000	73.618363
676.500000	73.565223
675.000000	73.553547
673.500000	73.513223
672.000000	73.572404
670.500000	73.530999
669.000000	73.528719
667.500000	73.570597
666.000000	73.508123
664.500000	73.454930
663.000000	73.538986
661.500000	73.470788
660.000000	73.470814
658.500000	73.460345
657.000000	73.425008
655.500000	73.426315
654.000000	73.406808
652.500000	73.413367
651.000000	73.398487
649.500000	73.372762
648.000000	73.350428
646.500000	73.347218
645.000000	73.297387
643.500000	73.299754
642.000000	73.316877
640.500000	73.269441
639.000000	73.277174
637.500000	73.216409
636.000000	73.195365
634.500000	73.182610
633.000000	73.185359
631.500000	73.211553
630.000000	73.142480
628.500000	73.172830
627.000000	73.155138
625.500000	73.141081
624.000000	73.170549
622.500000	73.106818
621.000000	73.063493
619.500000	73.084179
618.000000	73.043399
616.500000	72.992877
615.000000	72.980884
613.500000	72.986807
612.000000	72.970549
610.500000	72.973956
609.000000	72.927951
607.500000	72.904142
606.000000	72.861191
604.500000	72.817066
603.000000	72.828716
601.500000	72.835518
600.000000	72.829668
598.500000	72.809423
597.000000	72.789399
595.500000	72.760679
594.000000	72.750261
592.500000	72.730041
591.000000	72.693135
589.500000	72.651093
588.000000	72.636525
586.500000	72.631843
585.000000	72.659431
583.500000	72.637898
582.000000	72.590108
580.500000	72.533156
579.000000	72.484479
577.500000	72.452454
576.000000	72.440045
574.500000	72.444517
573.000000	72.452114
571.500000	72.404144
570.000000	72.339079
568.500000	72.327350
567.000000	72.288228
565.500000	72.211972
564.000000	72.109094
562.500000	72.135410
561.000000	72.297199
559.500000	72.385740
558.000000	72.378544
556.500000	72.373269
555.000000	72.334292
553.500000	72.334939
552.000000	72.339152
550.500000	72.309432
549.000000	72.239142
547.500000	72.201384
546.000000	72.237318
544.500000	72.227222
543.000000	72.180617
541.500000	72.146343
540.000000	72.120549
538.500000	72.132733
537.000000	72.128945
535.500000	72.092282
534.000000	72.066479
532.500000	72.071227
531.000000	72.054734
529.500000	72.020594
528.000000	72.000040
526.500000	71.970380
525.000000	71.947530
523.500000	71.899120
522.000000	71.823226
520.500000	71.740917
519.000000	71.633729
517.500000	71.500175
516.000000	71.350757
514.500000	71.168842
513.000000	70.933440
511.500000	70.699412
510.000000	70.450446
508.500000	70.214670
507.000000	69.996038
505.500000	69.832814
504.000000	69.717706
502.500000	69.648786
501.000000	69.615983
499.500000	69.709526
498.000000	69.796471
496.500000	69.875570
495.000000	70.006450
493.500000	70.134861
492.000000	70.300360
490.500000	70.412303
489.000000	70.559858
487.500000	70.732945
486.000000	70.867397
484.500000	71.014776
483.000000	71.336803
481.500000	71.663487
480.000000	71.679918
478.500000	71.450726
477.000000	71.197052
475.500000	70.984178
474.000000	70.818112
472.500000	70.694021
471.000000	70.529134
469.500000	70.318086
468.000000	70.049883
466.500000	69.821834
465.000000	69.555708
463.500000	69.315259
462.000000	69.108553
460.500000	68.993919
459.000000	68.889582
457.500000	68.802881
456.000000	68.793562
454.500000	68.826294
453.000000	68.778262
451.500000	68.823630
450.000000	68.932000
448.500000	68.944701
447.000000	68.918295
445.500000	68.969171
444.000000	69.202114
442.500000	69.327243
441.000000	69.279894
439.500000	69.212724
438.000000	69.097376
436.500000	69.006811
435.000000	68.910633
433.500000	68.882161
432.000000	68.830374
430.500000	68.734563
429.000000	68.689053
427.500000	68.623082
426.000000	68.503717
424.500000	68.480028
423.000000	68.336562
421.500000	68.286104
420.000000	68.232997
418.500000	68.139516
417.000000	67.994734
415.500000	67.924850
414.000000	67.894516
412.500000	67.721580
411.000000	67.663548
409.500000	67.503623
408.000000	67.430915
406.500000	67.271237
405.000000	67.130045
403.500000	67.048762
402.000000	66.917751
400.500000	66.759679
399.000000	66.604338
397.500000	66.485659
396.000000	66.336569
394.500000	66.126137
393.000000	66.055549
391.500000	65.850071
390.000000	65.719403
388.500000	65.503599
387.000000	65.249604
385.500000	65.025122
384.000000	64.621419
382.500000	64.381229
381.000000	63.987395
379.500000	63.701639
378.000000	63.232917
376.500000	63.735678
375.000000	63.757610
373.500000	62.591878
372.000000	61.534327
370.500000	60.196942
369.000000	58.665892
367.500000	57.058579
366.000000	54.980817
364.500000	52.556099
363.000000	49.790210
361.500000	46.322092
360.000000	42.540859
358.500000	38.251817
357.000000	33.315891
355.500000	28.175107
354.000000	22.759071
352.500000	17.634866
351.000000	12.894378
349.500000	8.859499
348.000000	5.715217
346.500000	3.459808
345.000000	1.952117
343.500000	1.052969
342.000000	0.518948
340.500000	0.234629
339.000000	0.108734
337.500000	0.065131
336.000000	0.066586
334.500000	0.056612
333.000000	0.059160
331.500000	0.055321
330.000000	0.062563
328.500000	0.063804
327.000000	0.064258
325.500000	0.075426
324.000000	0.077755
322.500000	0.079164
321.000000	0.070357
319.500000	0.069147
318.000000	0.006585
316.500000	-0.025355
315.000000	-0.019913
313.500000	-0.023507
312.000000	-0.024092
310.500000	-0.025047
309.000000	-0.015374
307.500000	-0.008887
306.000000	-0.002464
304.500000	-0.001043
303.000000	-0.009130
301.500000	-0.009987
300.000000	-0.005516
