PE UV       SUBTECH     SPECTRUM    ASCII       PEDS        4.00        
   -1
Sample74.Sample.Raw.asc
20/12/15
17:31:47.00
20/12/15
17:31:47.00
Administrator

300.000000
1
Lambda 850
850L1710193
PerkinElmer UV WinLab 6.4.0.973 / 2.02.06 Lambda 800 UV/VIS, Jan 28 2016 16:58:34

0
0
2
0
0
UV/VIS
1
1
1
RBeamAtt,SBeamAtt,60mm sphere
0
0
0
0
Fix
 
0
0.2
0
0
0
 
 
 
0
 
0
319.2
0
Front
100
 
S:100 R:100
 
0
0
0
 
0
 
 
 
0
 
 
0
0
0
0
0
 
 
 
 
0
0


0
0
#HDR
-1
-1
#GR
nm
%T
1.0
0.0
750.000000
-1.500000
301
8
75.341495
-0.042443
#DATA
750.000000	74.837172
748.500000	75.341495
747.000000	75.087517
745.500000	75.337325
744.000000	75.330897
742.500000	75.186292
741.000000	75.071805
739.500000	75.065819
738.000000	75.207034
736.500000	75.198210
735.000000	75.233262
733.500000	75.203522
732.000000	75.142842
730.500000	75.224084
729.000000	75.029584
727.500000	75.061179
726.000000	75.096001
724.500000	75.161819
723.000000	74.968481
721.500000	74.982922
720.000000	75.002375
718.500000	75.039745
717.000000	75.008796
715.500000	74.959890
714.000000	75.010516
712.500000	74.890296
711.000000	75.047150
709.500000	75.025940
708.000000	75.071563
706.500000	74.878932
705.000000	74.971336
703.500000	74.978166
702.000000	74.918174
700.500000	74.926191
699.000000	74.905726
697.500000	74.892076
696.000000	74.865353
694.500000	74.779626
693.000000	74.770854
691.500000	74.796007
690.000000	74.618802
688.500000	74.906831
687.000000	74.844527
685.500000	74.802906
684.000000	74.771923
682.500000	74.686572
681.000000	74.792628
679.500000	74.738185
678.000000	74.705535
676.500000	74.689497
675.000000	74.725826
673.500000	74.635966
672.000000	74.638750
670.500000	74.691499
669.000000	74.674190
667.500000	74.700916
666.000000	74.657397
664.500000	74.642991
663.000000	74.691990
661.500000	74.623114
660.000000	74.566125
658.500000	74.514778
657.000000	74.524922
655.500000	74.468456
654.000000	74.498076
652.500000	74.545106
651.000000	74.490056
649.500000	74.460548
648.000000	74.471443
646.500000	74.444837
645.000000	74.415402
643.500000	74.418526
642.000000	74.452965
640.500000	74.409230
639.000000	74.389771
637.500000	74.356518
636.000000	74.313126
634.500000	74.333165
633.000000	74.312910
631.500000	74.287397
630.000000	74.270241
628.500000	74.267855
627.000000	74.215053
625.500000	74.231534
624.000000	74.276427
622.500000	74.207581
621.000000	74.206331
619.500000	74.203707
618.000000	74.175047
616.500000	74.127429
615.000000	74.124358
613.500000	74.115762
612.000000	74.065961
610.500000	74.052979
609.000000	74.061088
607.500000	74.047584
606.000000	74.008160
604.500000	73.902547
603.000000	73.919449
601.500000	73.955775
600.000000	73.952557
598.500000	73.948236
597.000000	73.957272
595.500000	73.930656
594.000000	73.918458
592.500000	73.899043
591.000000	73.829181
589.500000	73.799803
588.000000	73.796791
586.500000	73.790883
585.000000	73.814230
583.500000	73.788466
582.000000	73.761016
580.500000	73.745362
579.000000	73.711089
577.500000	73.682386
576.000000	73.665262
574.500000	73.651311
573.000000	73.662714
571.500000	73.641917
570.000000	73.586477
568.500000	73.554750
567.000000	73.517335
565.500000	73.469287
564.000000	73.414271
562.500000	73.440839
561.000000	73.592340
559.500000	73.707107
558.000000	73.691057
556.500000	73.685231
555.000000	73.676565
553.500000	73.694195
552.000000	73.695439
550.500000	73.675624
549.000000	73.648726
547.500000	73.629608
546.000000	73.649467
544.500000	73.657931
543.000000	73.632931
541.500000	73.591555
540.000000	73.610905
538.500000	73.640850
537.000000	73.633956
535.500000	73.637503
534.000000	73.638995
532.500000	73.661000
531.000000	73.655769
529.500000	73.658760
528.000000	73.633399
526.500000	73.595510
525.000000	73.593343
523.500000	73.558218
522.000000	73.505338
520.500000	73.454252
519.000000	73.366126
517.500000	73.239432
516.000000	73.054257
514.500000	72.861556
513.000000	72.648601
511.500000	72.407417
510.000000	72.146335
508.500000	71.883572
507.000000	71.643295
505.500000	71.461672
504.000000	71.296351
502.500000	71.196584
501.000000	71.160674
499.500000	71.182648
498.000000	71.196875
496.500000	71.195164
495.000000	71.292063
493.500000	71.397462
492.000000	71.547850
490.500000	71.643923
489.000000	71.723222
487.500000	71.921140
486.000000	72.090405
484.500000	72.308940
483.000000	72.626400
481.500000	73.053123
480.000000	73.225005
478.500000	73.013967
477.000000	72.778448
475.500000	72.637244
474.000000	72.526982
472.500000	72.442133
471.000000	72.282676
469.500000	72.078927
468.000000	71.847402
466.500000	71.645838
465.000000	71.362976
463.500000	71.097159
462.000000	70.861289
460.500000	70.727733
459.000000	70.592678
457.500000	70.505055
456.000000	70.472073
454.500000	70.463233
453.000000	70.391440
451.500000	70.368441
450.000000	70.405765
448.500000	70.412235
447.000000	70.351048
445.500000	70.400409
444.000000	70.651141
442.500000	70.784698
441.000000	70.747578
439.500000	70.633830
438.000000	70.531636
436.500000	70.540787
435.000000	70.414521
433.500000	70.385004
432.000000	70.336413
430.500000	70.295362
429.000000	70.207528
427.500000	70.157496
426.000000	70.059838
424.500000	70.006163
423.000000	69.927348
421.500000	69.826127
420.000000	69.726724
418.500000	69.650542
417.000000	69.630291
415.500000	69.542066
414.000000	69.421130
412.500000	69.302630
411.000000	69.245604
409.500000	69.158459
408.000000	69.031605
406.500000	68.948061
405.000000	68.824599
403.500000	68.679716
402.000000	68.616504
400.500000	68.438346
399.000000	68.320977
397.500000	68.271232
396.000000	68.062339
394.500000	67.967494
393.000000	67.818460
391.500000	67.670270
390.000000	67.550489
388.500000	67.349066
387.000000	67.180614
385.500000	67.006342
384.000000	66.782591
382.500000	66.522431
381.000000	66.173769
379.500000	65.922623
378.000000	65.780120
376.500000	66.404546
375.000000	66.533794
373.500000	65.676580
372.000000	64.716616
370.500000	63.710752
369.000000	62.621904
367.500000	61.275835
366.000000	59.783933
364.500000	57.849843
363.000000	55.972819
361.500000	53.326648
360.000000	50.268310
358.500000	46.818088
357.000000	42.790624
355.500000	38.294264
354.000000	33.218342
352.500000	27.976833
351.000000	22.679327
349.500000	17.545732
348.000000	12.804014
346.500000	8.747698
345.000000	5.470648
343.500000	3.094831
342.000000	1.526420
340.500000	0.662228
339.000000	0.261461
337.500000	0.102838
336.000000	0.061956
334.500000	0.060974
333.000000	0.053605
331.500000	0.065624
330.000000	0.063397
328.500000	0.063153
327.000000	0.075865
325.500000	0.085099
324.000000	0.078592
322.500000	0.077861
321.000000	0.089088
319.500000	0.075213
318.000000	-0.006208
316.500000	-0.041507
315.000000	-0.041328
313.500000	-0.035448
312.000000	-0.042443
310.500000	-0.032015
309.000000	-0.029239
307.500000	-0.019570
306.000000	-0.012888
304.500000	-0.011763
303.000000	-0.018070
301.500000	-0.016550
300.000000	-0.017689
