PE UV       SUBTECH     SPECTRUM    ASCII       PEDS        4.00        
   -1
Sample73.Sample.Raw.asc
20/12/15
17:27:52.00
20/12/15
17:27:52.00
Administrator

300.000000
1
Lambda 850
850L1710193
PerkinElmer UV WinLab 6.4.0.973 / 2.02.06 Lambda 800 UV/VIS, Jan 28 2016 16:58:34

0
0
2
0
0
UV/VIS
1
1
1
RBeamAtt,SBeamAtt,60mm sphere
0
0
0
0
Fix
 
0
0.2
0
0
0
 
 
 
0
 
0
319.2
0
Front
100
 
S:100 R:100
 
0
0
0
 
0
 
 
 
0
 
 
0
0
0
0
0
 
 
 
 
0
0


0
0
#HDR
-1
-1
#GR
nm
%T
1.0
0.0
750.000000
-1.500000
301
8
74.235739
-0.028548
#DATA
750.000000	73.733458
748.500000	74.063608
747.000000	74.235739
745.500000	74.110330
744.000000	74.200471
742.500000	74.100413
741.000000	74.013389
739.500000	74.087181
738.000000	74.095945
736.500000	74.095112
735.000000	74.123901
733.500000	74.046730
732.000000	73.892945
730.500000	74.004683
729.000000	73.891220
727.500000	73.942994
726.000000	73.991580
724.500000	74.119935
723.000000	73.987866
721.500000	73.900070
720.000000	73.860104
718.500000	73.956301
717.000000	73.891882
715.500000	73.845100
714.000000	73.861816
712.500000	73.805937
711.000000	73.980419
709.500000	73.833327
708.000000	73.819946
706.500000	73.861983
705.000000	73.839770
703.500000	73.848916
702.000000	73.785244
700.500000	73.700402
699.000000	73.810684
697.500000	73.711073
696.000000	73.765156
694.500000	73.660882
693.000000	73.660670
691.500000	73.706328
690.000000	73.523332
688.500000	73.761639
687.000000	73.718625
685.500000	73.711377
684.000000	73.689321
682.500000	73.702049
681.000000	73.710846
679.500000	73.697399
678.000000	73.584776
676.500000	73.564814
675.000000	73.637902
673.500000	73.548618
672.000000	73.598232
670.500000	73.580796
669.000000	73.534626
667.500000	73.577987
666.000000	73.526093
664.500000	73.547260
663.000000	73.601015
661.500000	73.534619
660.000000	73.515070
658.500000	73.455993
657.000000	73.491776
655.500000	73.477576
654.000000	73.433592
652.500000	73.360621
651.000000	73.374320
649.500000	73.435506
648.000000	73.436616
646.500000	73.414010
645.000000	73.372700
643.500000	73.348865
642.000000	73.333997
640.500000	73.333860
639.000000	73.350014
637.500000	73.246858
636.000000	73.262025
634.500000	73.210104
633.000000	73.216398
631.500000	73.218965
630.000000	73.174511
628.500000	73.186753
627.000000	73.189490
625.500000	73.147095
624.000000	73.173764
622.500000	73.133109
621.000000	73.114260
619.500000	73.138601
618.000000	73.060299
616.500000	73.026176
615.000000	73.043214
613.500000	73.035544
612.000000	72.989429
610.500000	73.019070
609.000000	72.977605
607.500000	72.952538
606.000000	72.900596
604.500000	72.869486
603.000000	72.863260
601.500000	72.856717
600.000000	72.843446
598.500000	72.839870
597.000000	72.822001
595.500000	72.782547
594.000000	72.774524
592.500000	72.737304
591.000000	72.696022
589.500000	72.712151
588.000000	72.688420
586.500000	72.704278
585.000000	72.665456
583.500000	72.620567
582.000000	72.617668
580.500000	72.575155
579.000000	72.559321
577.500000	72.560312
576.000000	72.552351
574.500000	72.552372
573.000000	72.512206
571.500000	72.469933
570.000000	72.434633
568.500000	72.384772
567.000000	72.338297
565.500000	72.298245
564.000000	72.230962
562.500000	72.225923
561.000000	72.356830
559.500000	72.451767
558.000000	72.433927
556.500000	72.415364
555.000000	72.396936
553.500000	72.386449
552.000000	72.391168
550.500000	72.364087
549.000000	72.322170
547.500000	72.310898
546.000000	72.315427
544.500000	72.285600
543.000000	72.239056
541.500000	72.208238
540.000000	72.189624
538.500000	72.192328
537.000000	72.193734
535.500000	72.186275
534.000000	72.165262
532.500000	72.153023
531.000000	72.132405
529.500000	72.118991
528.000000	72.098596
526.500000	72.074633
525.000000	72.039097
523.500000	71.968978
522.000000	71.901931
520.500000	71.835254
519.000000	71.725582
517.500000	71.592854
516.000000	71.434849
514.500000	71.256980
513.000000	71.027594
511.500000	70.801564
510.000000	70.558270
508.500000	70.307125
507.000000	70.089882
505.500000	69.928483
504.000000	69.802634
502.500000	69.718127
501.000000	69.720537
499.500000	69.817991
498.000000	69.919990
496.500000	69.975193
495.000000	70.099439
493.500000	70.217063
492.000000	70.396774
490.500000	70.492740
489.000000	70.645424
487.500000	70.808382
486.000000	70.927224
484.500000	71.124796
483.000000	71.384158
481.500000	71.716613
480.000000	71.762426
478.500000	71.507711
477.000000	71.240135
475.500000	71.086749
474.000000	70.948536
472.500000	70.822039
471.000000	70.621755
469.500000	70.435893
468.000000	70.164922
466.500000	69.920935
465.000000	69.672894
463.500000	69.416616
462.000000	69.204366
460.500000	69.080019
459.000000	68.991882
457.500000	68.936037
456.000000	68.891814
454.500000	68.920733
453.000000	68.945651
451.500000	68.921040
450.000000	68.931249
448.500000	69.022590
447.000000	68.995795
445.500000	69.051562
444.000000	69.317855
442.500000	69.438581
441.000000	69.393749
439.500000	69.252689
438.000000	69.157245
436.500000	69.153056
435.000000	69.059904
433.500000	68.961298
432.000000	68.938634
430.500000	68.833882
429.000000	68.757906
427.500000	68.700047
426.000000	68.597164
424.500000	68.508396
423.000000	68.500582
421.500000	68.343636
420.000000	68.296353
418.500000	68.179217
417.000000	68.128671
415.500000	67.962091
414.000000	67.896812
412.500000	67.792734
411.000000	67.700512
409.500000	67.585744
408.000000	67.492269
406.500000	67.414753
405.000000	67.254490
403.500000	67.085244
402.000000	66.964617
400.500000	66.879179
399.000000	66.735149
397.500000	66.640056
396.000000	66.455700
394.500000	66.300150
393.000000	66.174813
391.500000	65.964816
390.000000	65.737911
388.500000	65.586183
387.000000	65.412919
385.500000	65.189530
384.000000	64.866526
382.500000	64.582698
381.000000	64.060145
379.500000	63.793607
378.000000	63.456806
376.500000	63.960313
375.000000	63.934612
373.500000	62.859392
372.000000	61.762616
370.500000	60.328054
369.000000	58.882246
367.500000	57.122438
366.000000	55.073177
364.500000	52.682998
363.000000	49.990628
361.500000	46.482835
360.000000	42.775831
358.500000	38.424906
357.000000	33.546738
355.500000	28.438749
354.000000	22.995255
352.500000	17.740569
351.000000	13.029686
349.500000	8.988575
348.000000	5.793357
346.500000	3.521325
345.000000	2.010009
343.500000	1.073496
342.000000	0.518948
340.500000	0.221790
339.000000	0.100861
337.500000	0.043544
336.000000	0.040007
334.500000	0.037587
333.000000	0.040088
331.500000	0.026454
330.000000	0.040504
328.500000	0.041700
327.000000	0.037515
325.500000	0.048083
324.000000	0.035250
322.500000	0.041117
321.000000	0.038114
319.500000	0.054217
318.000000	0.003480
316.500000	-0.028548
315.000000	-0.025736
313.500000	-0.025669
312.000000	-0.021833
310.500000	-0.022034
309.000000	-0.020656
307.500000	-0.016167
306.000000	-0.009382
304.500000	-0.003225
303.000000	-0.007228
301.500000	-0.010558
300.000000	-0.015026
