PE UV       SUBTECH     SPECTRUM    ASCII       PEDS        4.00        
   -1
Sample153.Sample.Raw.asc
21/01/27
12:20:59.00
21/01/27
12:20:59.00
Administrator

300.000000
1
Lambda 850
850L1710193
PerkinElmer UV WinLab 6.4.0.973 / 2.02.06 Lambda 800 UV/VIS, Jan 28 2016 16:58:34

0
0
2
0
0
UV/VIS
1
1
1
RBeamAtt,SBeamAtt,60mm sphere
0
0
0
0
Fix
 
0
0.2
0
0
0
 
 
 
0
 
0
319.2
0
Front
100
 
S:100 R:100
 
0
0
0
 
0
 
 
 
0
 
 
0
0
0
0
0
 
 
 
 
0
0


0
0
#HDR
-1
-1
#GR
nm
%T
1.0
0.0
750.000000
-1.500000
301
8
72.570076
-0.031083
#DATA
750.000000	72.194476
748.500000	72.439682
747.000000	72.570076
745.500000	72.499875
744.000000	72.259907
742.500000	72.330243
741.000000	72.237710
739.500000	72.422573
738.000000	72.301561
736.500000	72.245005
735.000000	72.238861
733.500000	72.343461
732.000000	72.145656
730.500000	72.179168
729.000000	72.156216
727.500000	72.072749
726.000000	72.152114
724.500000	72.090313
723.000000	72.164738
721.500000	72.107725
720.000000	71.994582
718.500000	72.039171
717.000000	71.971361
715.500000	71.924866
714.000000	71.979206
712.500000	71.874842
711.000000	71.842825
709.500000	71.835896
708.000000	71.893258
706.500000	71.882747
705.000000	71.871772
703.500000	71.855545
702.000000	71.771069
700.500000	71.762497
699.000000	71.821774
697.500000	71.780473
696.000000	71.676891
694.500000	71.706476
693.000000	71.660337
691.500000	71.689985
690.000000	71.504997
688.500000	71.623452
687.000000	71.504143
685.500000	71.593928
684.000000	71.572426
682.500000	71.494946
681.000000	71.459819
679.500000	71.398116
678.000000	71.381354
676.500000	71.320037
675.000000	71.289489
673.500000	71.314538
672.000000	71.301759
670.500000	71.270204
669.000000	71.221992
667.500000	71.197107
666.000000	71.141863
664.500000	71.132843
663.000000	70.963125
661.500000	70.995987
660.000000	70.923970
658.500000	70.864966
657.000000	70.788936
655.500000	70.705300
654.000000	70.656259
652.500000	70.636470
651.000000	70.558676
649.500000	70.466306
648.000000	70.382354
646.500000	70.345029
645.000000	70.251834
643.500000	70.196510
642.000000	70.151828
640.500000	69.999002
639.000000	69.950250
637.500000	69.891309
636.000000	69.792231
634.500000	69.762154
633.000000	69.663651
631.500000	69.572010
630.000000	69.541115
628.500000	69.437471
627.000000	69.375952
625.500000	69.294525
624.000000	69.179193
622.500000	69.070424
621.000000	68.975760
619.500000	68.927594
618.000000	68.828240
616.500000	68.733723
615.000000	68.631188
613.500000	68.555064
612.000000	68.457077
610.500000	68.340952
609.000000	68.209160
607.500000	68.117952
606.000000	68.037163
604.500000	68.000853
603.000000	67.939580
601.500000	67.820242
600.000000	67.683401
598.500000	67.563449
597.000000	67.496894
595.500000	67.422144
594.000000	67.309289
592.500000	67.251707
591.000000	67.171330
589.500000	67.023920
588.000000	66.921302
586.500000	66.850520
585.000000	66.744978
583.500000	66.596526
582.000000	66.503650
580.500000	66.418856
579.000000	66.322807
577.500000	66.251758
576.000000	66.138821
574.500000	66.029119
573.000000	65.919614
571.500000	65.833551
570.000000	65.736191
568.500000	65.618190
567.000000	65.484445
565.500000	65.366994
564.000000	65.270073
562.500000	65.160854
561.000000	65.196255
559.500000	65.267640
558.000000	65.191370
556.500000	65.083084
555.000000	64.978365
553.500000	64.894606
552.000000	64.822682
550.500000	64.718030
549.000000	64.642445
547.500000	64.549231
546.000000	64.451824
544.500000	64.390075
543.000000	64.318778
541.500000	64.231456
540.000000	64.153651
538.500000	64.075881
537.000000	64.011237
535.500000	63.940312
534.000000	63.826540
532.500000	63.765294
531.000000	63.729886
529.500000	63.658308
528.000000	63.569743
526.500000	63.471754
525.000000	63.406979
523.500000	63.310037
522.000000	63.180588
520.500000	63.063476
519.000000	62.954795
517.500000	62.827015
516.000000	62.646451
514.500000	62.447956
513.000000	62.225736
511.500000	61.996263
510.000000	61.773225
508.500000	61.573987
507.000000	61.371881
505.500000	61.205022
504.000000	61.102110
502.500000	61.105802
501.000000	61.120421
499.500000	61.204188
498.000000	61.276930
496.500000	61.382059
495.000000	61.547417
493.500000	61.703723
492.000000	61.854430
490.500000	61.953291
489.000000	62.106533
487.500000	62.232383
486.000000	62.310011
484.500000	62.419581
483.000000	62.600123
481.500000	62.816946
480.000000	62.776190
478.500000	62.473889
477.000000	62.216193
475.500000	62.046415
474.000000	61.891529
472.500000	61.710402
471.000000	61.561198
469.500000	61.367646
468.000000	61.144787
466.500000	60.890490
465.000000	60.704755
463.500000	60.512366
462.000000	60.325812
460.500000	60.222174
459.000000	60.166946
457.500000	60.104954
456.000000	60.107012
454.500000	60.146907
453.000000	60.207604
451.500000	60.260875
450.000000	60.333550
448.500000	60.338156
447.000000	60.291659
445.500000	60.351781
444.000000	60.606529
442.500000	60.734970
441.000000	60.671095
439.500000	60.539191
438.000000	60.498688
436.500000	60.362631
435.000000	60.318989
433.500000	60.236680
432.000000	60.197988
430.500000	60.162947
429.000000	60.049781
427.500000	59.901341
426.000000	59.894665
424.500000	59.796600
423.000000	59.753883
421.500000	59.700487
420.000000	59.660241
418.500000	59.567549
417.000000	59.463715
415.500000	59.407035
414.000000	59.299023
412.500000	59.184640
411.000000	59.126146
409.500000	58.953791
408.000000	58.880412
406.500000	58.844796
405.000000	58.712835
403.500000	58.686656
402.000000	58.601527
400.500000	58.496875
399.000000	58.393652
397.500000	58.301206
396.000000	58.141011
394.500000	58.063939
393.000000	57.922864
391.500000	57.879457
390.000000	57.765747
388.500000	57.578823
387.000000	57.441719
385.500000	57.317668
384.000000	57.118205
382.500000	56.920806
381.000000	56.705205
379.500000	56.392555
378.000000	56.373527
376.500000	56.563617
375.000000	56.580855
373.500000	55.878980
372.000000	54.967399
370.500000	53.895247
369.000000	52.835788
367.500000	51.392278
366.000000	49.807836
364.500000	47.782644
363.000000	45.523286
361.500000	42.687485
360.000000	39.501707
358.500000	35.769687
357.000000	31.592180
355.500000	26.980458
354.000000	22.272147
352.500000	17.536574
351.000000	13.080699
349.500000	9.215797
348.000000	6.118811
346.500000	3.774607
345.000000	2.192538
343.500000	1.197977
342.000000	0.608147
340.500000	0.273161
339.000000	0.126092
337.500000	0.056246
336.000000	0.040144
334.500000	0.034069
333.000000	0.033003
331.500000	0.041874
330.000000	0.041790
328.500000	0.039910
327.000000	0.047151
325.500000	0.048711
324.000000	0.048411
322.500000	0.047636
321.000000	0.047338
319.500000	0.048231
318.000000	0.007645
316.500000	-0.023335
315.000000	-0.023242
313.500000	-0.031083
312.000000	-0.029153
310.500000	-0.026813
309.000000	-0.016452
307.500000	-0.015154
306.000000	-0.008352
304.500000	-0.002948
303.000000	-0.010376
301.500000	-0.009910
300.000000	-0.008021
