PE UV       SUBTECH     SPECTRUM    ASCII       PEDS        4.00        
   -1
Sample182.Sample.Raw.asc
21/01/28
12:21:14.00
21/01/28
12:21:14.00
Administrator

300.000000
1
Lambda 850
850L1710193
PerkinElmer UV WinLab 6.4.0.973 / 2.02.06 Lambda 800 UV/VIS, Jan 28 2016 16:58:34

0
0
2
0
0
UV/VIS
1
1
1
RBeamAtt,SBeamAtt,60mm sphere
0
0
0
0
Fix
 
0
0.2
0
0
0
 
 
 
0
 
0
319.2
0
Front
100
 
S:100 R:100
 
0
0
0
 
0
 
 
 
0
 
 
0
0
0
0
0
 
 
 
 
0
0


0
0
#HDR
-1
-1
#GR
nm
%T
1.0
0.0
750.000000
-1.500000
301
8
75.044417
-0.028116
#DATA
750.000000	74.624552
748.500000	75.044417
747.000000	74.871415
745.500000	74.908534
744.000000	74.809757
742.500000	74.838397
741.000000	74.844966
739.500000	74.858328
738.000000	74.676870
736.500000	74.909288
735.000000	74.705163
733.500000	74.837179
732.000000	74.859439
730.500000	74.916567
729.000000	74.862792
727.500000	74.759732
726.000000	74.667674
724.500000	74.788667
723.000000	74.697052
721.500000	74.704581
720.000000	74.637410
718.500000	74.677849
717.000000	74.764106
715.500000	74.734175
714.000000	74.648553
712.500000	74.670627
711.000000	74.592780
709.500000	74.575562
708.000000	74.507779
706.500000	74.627694
705.000000	74.479802
703.500000	74.600987
702.000000	74.566357
700.500000	74.620758
699.000000	74.489777
697.500000	74.443740
696.000000	74.479838
694.500000	74.502608
693.000000	74.397830
691.500000	74.318212
690.000000	74.234424
688.500000	74.459623
687.000000	74.469505
685.500000	74.407319
684.000000	74.422158
682.500000	74.291052
681.000000	74.291267
679.500000	74.292975
678.000000	74.299829
676.500000	74.323778
675.000000	74.270180
673.500000	74.252704
672.000000	74.258862
670.500000	74.192636
669.000000	74.195761
667.500000	74.211828
666.000000	74.196369
664.500000	74.195058
663.000000	74.215573
661.500000	74.102209
660.000000	74.113451
658.500000	74.095741
657.000000	74.095153
655.500000	74.035235
654.000000	73.979888
652.500000	74.035594
651.000000	74.027367
649.500000	73.982569
648.000000	74.023939
646.500000	73.957175
645.000000	73.954298
643.500000	73.858166
642.000000	73.823326
640.500000	73.847253
639.000000	73.882304
637.500000	73.819693
636.000000	73.782554
634.500000	73.805651
633.000000	73.717656
631.500000	73.682451
630.000000	73.645902
628.500000	73.614205
627.000000	73.650297
625.500000	73.617904
624.000000	73.575019
622.500000	73.534376
621.000000	73.530103
619.500000	73.537483
618.000000	73.530033
616.500000	73.461732
615.000000	73.453398
613.500000	73.415966
612.000000	73.379096
610.500000	73.395163
609.000000	73.332965
607.500000	73.265788
606.000000	73.322614
604.500000	73.273328
603.000000	73.245290
601.500000	73.236838
600.000000	73.196882
598.500000	73.118684
597.000000	73.162978
595.500000	73.161486
594.000000	73.096568
592.500000	73.060600
591.000000	72.995682
589.500000	72.999824
588.000000	73.017416
586.500000	72.982668
585.000000	72.963112
583.500000	72.908403
582.000000	72.885904
580.500000	72.876806
579.000000	72.840114
577.500000	72.795501
576.000000	72.778395
574.500000	72.737266
573.000000	72.714397
571.500000	72.674233
570.000000	72.636421
568.500000	72.587924
567.000000	72.570880
565.500000	72.503325
564.000000	72.457229
562.500000	72.451569
561.000000	72.543474
559.500000	72.665909
558.000000	72.639143
556.500000	72.643992
555.000000	72.658127
553.500000	72.630125
552.000000	72.605220
550.500000	72.583007
549.000000	72.560573
547.500000	72.550122
546.000000	72.576226
544.500000	72.564291
543.000000	72.541473
541.500000	72.549851
540.000000	72.531269
538.500000	72.521930
537.000000	72.535394
535.500000	72.563501
534.000000	72.578038
532.500000	72.551787
531.000000	72.523753
529.500000	72.517119
528.000000	72.528796
526.500000	72.543695
525.000000	72.508946
523.500000	72.451420
522.000000	72.377518
520.500000	72.328249
519.000000	72.262383
517.500000	72.125048
516.000000	71.955365
514.500000	71.759524
513.000000	71.537982
511.500000	71.323257
510.000000	71.098277
508.500000	70.845197
507.000000	70.599853
505.500000	70.379198
504.000000	70.209773
502.500000	70.054981
501.000000	70.009474
499.500000	69.997025
498.000000	70.017192
496.500000	70.008769
495.000000	70.047563
493.500000	70.160239
492.000000	70.319871
490.500000	70.375044
489.000000	70.442341
487.500000	70.617179
486.000000	70.745975
484.500000	70.953169
483.000000	71.326429
481.500000	71.713290
480.000000	71.855179
478.500000	71.672214
477.000000	71.438818
475.500000	71.342473
474.000000	71.283778
472.500000	71.172532
471.000000	71.018975
469.500000	70.836195
468.000000	70.598886
466.500000	70.339929
465.000000	70.081245
463.500000	69.816157
462.000000	69.584897
460.500000	69.434540
459.000000	69.273118
457.500000	69.185275
456.000000	69.147360
454.500000	69.112250
453.000000	69.040112
451.500000	68.937643
450.000000	68.911099
448.500000	68.922469
447.000000	68.814626
445.500000	68.853285
444.000000	69.116131
442.500000	69.265596
441.000000	69.113466
439.500000	69.038842
438.000000	68.973123
436.500000	68.889746
435.000000	68.833858
433.500000	68.747575
432.000000	68.674162
430.500000	68.559170
429.000000	68.565681
427.500000	68.495219
426.000000	68.383576
424.500000	68.346288
423.000000	68.265756
421.500000	68.154252
420.000000	68.063184
418.500000	67.973510
417.000000	67.886464
415.500000	67.860709
414.000000	67.727079
412.500000	67.689935
411.000000	67.603035
409.500000	67.564349
408.000000	67.374291
406.500000	67.357275
405.000000	67.158271
403.500000	67.064379
402.000000	67.008829
400.500000	66.869609
399.000000	66.700980
397.500000	66.670152
396.000000	66.493391
394.500000	66.474555
393.000000	66.299199
391.500000	66.169794
390.000000	65.955944
388.500000	65.794168
387.000000	65.719972
385.500000	65.535183
384.000000	65.317594
382.500000	65.087069
381.000000	64.871913
379.500000	64.630553
378.000000	64.398884
376.500000	65.038369
375.000000	65.048935
373.500000	64.278169
372.000000	63.481604
370.500000	62.461695
369.000000	61.531185
367.500000	60.487322
366.000000	59.154508
364.500000	57.441854
363.000000	55.685101
361.500000	53.511983
360.000000	50.939788
358.500000	47.905264
357.000000	44.286670
355.500000	40.314226
354.000000	35.749423
352.500000	30.870685
351.000000	25.777153
349.500000	20.655935
348.000000	15.793254
346.500000	11.337235
345.000000	7.570397
343.500000	4.598451
342.000000	2.502976
340.500000	1.193218
339.000000	0.494718
337.500000	0.172148
336.000000	0.069822
334.500000	0.044945
333.000000	0.038771
331.500000	0.042613
330.000000	0.043725
328.500000	0.045321
327.000000	0.047112
325.500000	0.046435
324.000000	0.047892
322.500000	0.051428
321.000000	0.053305
319.500000	0.047012
318.000000	0.004235
316.500000	-0.023293
315.000000	-0.021327
313.500000	-0.028116
312.000000	-0.025788
310.500000	-0.020070
309.000000	-0.015080
307.500000	-0.013791
306.000000	-0.008238
304.500000	-0.004834
303.000000	-0.004746
301.500000	-0.010745
300.000000	-0.009605
