PE UV       SUBTECH     SPECTRUM    ASCII       PEDS        4.00        
   -1
Sample232.Sample.Raw.asc
21/02/05
14:44:39.00
21/02/05
14:44:39.00
Administrator

300.000000
1
Lambda 850
850L1710193
PerkinElmer UV WinLab 6.4.0.973 / 2.02.06 Lambda 800 UV/VIS, Jan 28 2016 16:58:34

0
0
2
0
0
UV/VIS
1
1
1
RBeamAtt,SBeamAtt,60mm sphere
0
0
0
0
Fix
 
0
0.2
0
0
0
 
 
 
0
 
0
340
0
Front
100
 
S:100 R:100
 
0
0
0
 
0
 
 
 
0
 
 
0
0
0
0
0
 
 
 
 
0
0


0
0
#HDR
-1
-1
#GR
nm
%T
1.0
0.0
750.000000
-1.500000
301
8
74.387770
-0.061280
#DATA
750.000000	74.100702
748.500000	74.300092
747.000000	74.387770
745.500000	74.308284
744.000000	74.272921
742.500000	74.379035
741.000000	74.368269
739.500000	74.254915
738.000000	74.296025
736.500000	74.374133
735.000000	74.174519
733.500000	74.326562
732.000000	74.271779
730.500000	74.287666
729.000000	74.223239
727.500000	74.177326
726.000000	74.288298
724.500000	74.075152
723.000000	74.265024
721.500000	74.101706
720.000000	74.185339
718.500000	74.218945
717.000000	74.207914
715.500000	74.237546
714.000000	74.086707
712.500000	74.191737
711.000000	74.146742
709.500000	74.082238
708.000000	74.131370
706.500000	74.164532
705.000000	74.273813
703.500000	74.079107
702.000000	74.074141
700.500000	74.050788
699.000000	74.196270
697.500000	74.080178
696.000000	74.061399
694.500000	73.991728
693.000000	74.022681
691.500000	74.028426
690.000000	73.748672
688.500000	73.974435
687.000000	74.019779
685.500000	73.971635
684.000000	74.008490
682.500000	74.021774
681.000000	73.985098
679.500000	73.967151
678.000000	73.961319
676.500000	73.941258
675.000000	73.913125
673.500000	73.906229
672.000000	73.874010
670.500000	73.811309
669.000000	73.854531
667.500000	73.865780
666.000000	73.863700
664.500000	73.806266
663.000000	73.770423
661.500000	73.785067
660.000000	73.787917
658.500000	73.752711
657.000000	73.716849
655.500000	73.730775
654.000000	73.707847
652.500000	73.674349
651.000000	73.594442
649.500000	73.635961
648.000000	73.673697
646.500000	73.675494
645.000000	73.610567
643.500000	73.547666
642.000000	73.619234
640.500000	73.562285
639.000000	73.569478
637.500000	73.531128
636.000000	73.563553
634.500000	73.535927
633.000000	73.520671
631.500000	73.560552
630.000000	73.504271
628.500000	73.443409
627.000000	73.356879
625.500000	73.362083
624.000000	73.405689
622.500000	73.450536
621.000000	73.436839
619.500000	73.402611
618.000000	73.366539
616.500000	73.303739
615.000000	73.244378
613.500000	73.262485
612.000000	73.254188
610.500000	73.261502
609.000000	73.246682
607.500000	73.183436
606.000000	73.199837
604.500000	73.188204
603.000000	73.120824
601.500000	73.131754
600.000000	73.131898
598.500000	73.126121
597.000000	73.090330
595.500000	73.040841
594.000000	73.060436
592.500000	73.005389
591.000000	72.984955
589.500000	72.971840
588.000000	72.949748
586.500000	72.959309
585.000000	72.947969
583.500000	72.919515
582.000000	72.882892
580.500000	72.862064
579.000000	72.823941
577.500000	72.761679
576.000000	72.761163
574.500000	72.747035
573.000000	72.691290
571.500000	72.681118
570.000000	72.652079
568.500000	72.626258
567.000000	72.565671
565.500000	72.494577
564.000000	72.427746
562.500000	72.432477
561.000000	72.591461
559.500000	72.690940
558.000000	72.634825
556.500000	72.643432
555.000000	72.665359
553.500000	72.617042
552.000000	72.617783
550.500000	72.574529
549.000000	72.524139
547.500000	72.535604
546.000000	72.511218
544.500000	72.483528
543.000000	72.470923
541.500000	72.441792
540.000000	72.426824
538.500000	72.420735
537.000000	72.435000
535.500000	72.408845
534.000000	72.384677
532.500000	72.378702
531.000000	72.366610
529.500000	72.363168
528.000000	72.328185
526.500000	72.281688
525.000000	72.233073
523.500000	72.155611
522.000000	72.081660
520.500000	72.005567
519.000000	71.907129
517.500000	71.795315
516.000000	71.629929
514.500000	71.423650
513.000000	71.214665
511.500000	71.015417
510.000000	70.755053
508.500000	70.505184
507.000000	70.289840
505.500000	70.147703
504.000000	70.026529
502.500000	69.952052
501.000000	69.886550
499.500000	69.948280
498.000000	70.045028
496.500000	70.156035
495.000000	70.267862
493.500000	70.379475
492.000000	70.554802
490.500000	70.709677
489.000000	70.814764
487.500000	71.001586
486.000000	71.182882
484.500000	71.313170
483.000000	71.594114
481.500000	71.910256
480.000000	71.945344
478.500000	71.652242
477.000000	71.383550
475.500000	71.197266
474.000000	71.097583
472.500000	70.951167
471.000000	70.782287
469.500000	70.575426
468.000000	70.336378
466.500000	70.045575
465.000000	69.771298
463.500000	69.535146
462.000000	69.360151
460.500000	69.254637
459.000000	69.172589
457.500000	69.085084
456.000000	69.094489
454.500000	69.057690
453.000000	69.121077
451.500000	69.129149
450.000000	69.144861
448.500000	69.159598
447.000000	69.191722
445.500000	69.225116
444.000000	69.520686
442.500000	69.651547
441.000000	69.523570
439.500000	69.451236
438.000000	69.375564
436.500000	69.281506
435.000000	69.198917
433.500000	69.204282
432.000000	69.143495
430.500000	69.076612
429.000000	68.909659
427.500000	68.922412
426.000000	68.825615
424.500000	68.739023
423.000000	68.639501
421.500000	68.570851
420.000000	68.529154
418.500000	68.437454
417.000000	68.380342
415.500000	68.297941
414.000000	68.135516
412.500000	68.155785
411.000000	68.024620
409.500000	68.008918
408.000000	67.887540
406.500000	67.740622
405.000000	67.658252
403.500000	67.613889
402.000000	67.555936
400.500000	67.343721
399.000000	67.213716
397.500000	67.158213
396.000000	67.062754
394.500000	66.804347
393.000000	66.718406
391.500000	66.586208
390.000000	66.485476
388.500000	66.299920
387.000000	66.039892
385.500000	65.850510
384.000000	65.594131
382.500000	65.389296
381.000000	64.935182
379.500000	64.607529
378.000000	64.218380
376.500000	64.939745
375.000000	64.686760
373.500000	63.698357
372.000000	62.606064
370.500000	61.174338
369.000000	59.574331
367.500000	57.825321
366.000000	55.854940
364.500000	53.405161
363.000000	50.378468
361.500000	46.965308
360.000000	42.937476
358.500000	38.645981
357.000000	33.597420
355.500000	28.292007
354.000000	22.900448
352.500000	17.683403
351.000000	12.902876
349.500000	8.841455
348.000000	5.676711
346.500000	3.435589
345.000000	1.939882
343.500000	0.993564
342.000000	0.491909
340.500000	0.215349
339.000000	0.053200
337.500000	-0.005021
336.000000	-0.024695
334.500000	-0.061280
333.000000	-0.045546
331.500000	-0.036198
330.000000	-0.030345
328.500000	-0.023002
327.000000	-0.035488
325.500000	-0.043385
324.000000	-0.033201
322.500000	-0.033415
321.000000	-0.034989
319.500000	-0.037215
318.000000	0.000471
316.500000	-0.013244
315.000000	-0.018431
313.500000	-0.021733
312.000000	-0.024743
310.500000	-0.022328
309.000000	-0.018191
307.500000	-0.015594
306.000000	-0.007484
304.500000	0.007975
303.000000	-0.005225
301.500000	-0.009888
300.000000	-0.016257
