PE UV       SUBTECH     SPECTRUM    ASCII       PEDS        4.00        
   -1
Sample100.Sample.Raw.asc
20/12/17
14:47:26.00
20/12/17
14:47:26.00
Administrator

300.000000
1
Lambda 850
850L1710193
PerkinElmer UV WinLab 6.4.0.973 / 2.02.06 Lambda 800 UV/VIS, Jan 28 2016 16:58:34

0
0
2
0
0
UV/VIS
1
1
1
RBeamAtt,SBeamAtt,60mm sphere
0
0
0
0
Fix
 
0
0.2
0
0
0
 
 
 
0
 
0
319.2
0
Front
100
 
S:100 R:100
 
0
0
0
 
0
 
 
 
0
 
 
0
0
0
0
0
 
 
 
 
0
0


0
0
#HDR
-1
-1
#GR
nm
%T
1.0
0.0
750.000000
-1.500000
301
8
74.599372
-0.022536
#DATA
750.000000	74.337652
748.500000	74.423064
747.000000	74.399168
745.500000	74.599372
744.000000	74.478299
742.500000	74.402046
741.000000	74.436890
739.500000	74.352731
738.000000	74.315263
736.500000	74.477560
735.000000	74.412703
733.500000	74.361645
732.000000	74.512852
730.500000	74.448977
729.000000	74.370888
727.500000	74.307980
726.000000	74.251748
724.500000	74.354750
723.000000	74.359778
721.500000	74.388330
720.000000	74.220249
718.500000	74.281323
717.000000	74.319219
715.500000	74.234786
714.000000	74.314257
712.500000	74.282779
711.000000	74.287952
709.500000	74.252024
708.000000	74.262447
706.500000	74.316852
705.000000	74.253162
703.500000	74.339008
702.000000	74.232367
700.500000	74.202496
699.000000	74.159955
697.500000	74.207894
696.000000	74.148021
694.500000	74.101021
693.000000	74.157543
691.500000	74.088152
690.000000	73.935664
688.500000	74.052112
687.000000	74.118044
685.500000	74.146911
684.000000	74.128849
682.500000	74.060019
681.000000	74.025615
679.500000	74.068968
678.000000	73.997799
676.500000	74.056001
675.000000	74.030423
673.500000	73.996753
672.000000	74.005833
670.500000	73.959133
669.000000	73.933302
667.500000	73.991003
666.000000	73.953690
664.500000	73.911295
663.000000	74.002643
661.500000	73.978766
660.000000	73.855363
658.500000	73.873321
657.000000	73.895589
655.500000	73.877924
654.000000	73.853944
652.500000	73.825539
651.000000	73.829889
649.500000	73.806060
648.000000	73.782686
646.500000	73.781456
645.000000	73.796177
643.500000	73.748620
642.000000	73.795961
640.500000	73.758837
639.000000	73.712489
637.500000	73.701787
636.000000	73.668239
634.500000	73.661902
633.000000	73.663282
631.500000	73.657461
630.000000	73.646000
628.500000	73.629605
627.000000	73.637463
625.500000	73.601147
624.000000	73.562384
622.500000	73.563822
621.000000	73.515566
619.500000	73.550950
618.000000	73.473828
616.500000	73.455170
615.000000	73.478444
613.500000	73.497505
612.000000	73.472837
610.500000	73.413524
609.000000	73.383926
607.500000	73.370531
606.000000	73.360929
604.500000	73.370006
603.000000	73.346615
601.500000	73.312559
600.000000	73.325095
598.500000	73.330020
597.000000	73.259403
595.500000	73.260352
594.000000	73.262276
592.500000	73.220015
591.000000	73.206569
589.500000	73.217751
588.000000	73.175186
586.500000	73.132977
585.000000	73.078116
583.500000	73.092987
582.000000	73.107272
580.500000	73.069290
579.000000	73.048635
577.500000	72.994581
576.000000	72.963871
574.500000	72.939830
573.000000	72.882080
571.500000	72.880317
570.000000	72.888522
568.500000	72.867177
567.000000	72.830923
565.500000	72.788820
564.000000	72.703336
562.500000	72.712528
561.000000	72.883525
559.500000	72.980038
558.000000	72.942730
556.500000	72.947084
555.000000	72.928398
553.500000	72.859329
552.000000	72.849555
550.500000	72.867899
549.000000	72.858736
547.500000	72.840272
546.000000	72.818674
544.500000	72.793175
543.000000	72.737342
541.500000	72.696979
540.000000	72.687695
538.500000	72.698614
537.000000	72.731384
535.500000	72.719567
534.000000	72.692083
532.500000	72.653356
531.000000	72.626300
529.500000	72.630794
528.000000	72.604835
526.500000	72.567775
525.000000	72.515431
523.500000	72.468091
522.000000	72.418538
520.500000	72.346914
519.000000	72.247773
517.500000	72.117003
516.000000	71.957570
514.500000	71.788475
513.000000	71.561065
511.500000	71.325066
510.000000	71.077598
508.500000	70.846517
507.000000	70.638739
505.500000	70.468816
504.000000	70.364627
502.500000	70.322863
501.000000	70.289358
499.500000	70.319855
498.000000	70.390545
496.500000	70.520061
495.000000	70.672323
493.500000	70.777886
492.000000	70.884964
490.500000	71.063068
489.000000	71.226964
487.500000	71.337771
486.000000	71.458270
484.500000	71.664216
483.000000	71.940489
481.500000	72.231840
480.000000	72.296140
478.500000	72.048416
477.000000	71.827844
475.500000	71.682766
474.000000	71.489701
472.500000	71.347450
471.000000	71.182450
469.500000	70.978564
468.000000	70.738284
466.500000	70.476224
465.000000	70.198130
463.500000	69.939527
462.000000	69.734207
460.500000	69.671018
459.000000	69.561767
457.500000	69.483112
456.000000	69.517415
454.500000	69.489888
453.000000	69.539882
451.500000	69.542054
450.000000	69.605161
448.500000	69.627285
447.000000	69.617036
445.500000	69.662880
444.000000	69.917272
442.500000	70.086480
441.000000	69.955341
439.500000	69.891887
438.000000	69.781235
436.500000	69.700226
435.000000	69.662881
433.500000	69.567089
432.000000	69.485133
430.500000	69.499373
429.000000	69.355080
427.500000	69.303257
426.000000	69.287328
424.500000	69.183873
423.000000	69.082621
421.500000	69.076299
420.000000	68.963248
418.500000	68.917968
417.000000	68.874038
415.500000	68.735466
414.000000	68.672752
412.500000	68.581481
411.000000	68.550171
409.500000	68.423154
408.000000	68.297484
406.500000	68.236131
405.000000	68.111004
403.500000	68.028263
402.000000	67.908773
400.500000	67.779936
399.000000	67.737634
397.500000	67.582667
396.000000	67.498476
394.500000	67.320281
393.000000	67.139280
391.500000	67.139581
390.000000	66.938433
388.500000	66.750804
387.000000	66.471259
385.500000	66.222612
384.000000	66.031102
382.500000	65.782354
381.000000	65.382854
379.500000	65.125735
378.000000	64.828870
376.500000	65.255495
375.000000	65.229010
373.500000	64.057729
372.000000	63.022239
370.500000	61.559048
369.000000	60.166026
367.500000	58.365569
366.000000	56.257978
364.500000	53.756168
363.000000	50.812440
361.500000	47.399423
360.000000	43.472265
358.500000	39.037945
357.000000	34.090096
355.500000	28.791529
354.000000	23.315441
352.500000	18.039245
351.000000	13.252479
349.500000	9.108615
348.000000	5.918065
346.500000	3.560420
345.000000	2.034951
343.500000	1.074919
342.000000	0.537568
340.500000	0.248478
339.000000	0.114082
337.500000	0.067571
336.000000	0.053542
334.500000	0.045543
333.000000	0.054745
331.500000	0.063734
330.000000	0.041637
328.500000	0.048566
327.000000	0.055818
325.500000	0.061417
324.000000	0.056479
322.500000	0.071839
321.000000	0.057717
319.500000	0.056652
318.000000	0.020672
316.500000	-0.019701
315.000000	-0.015764
313.500000	-0.022536
312.000000	-0.016547
310.500000	-0.019565
309.000000	-0.011694
307.500000	-0.011916
306.000000	0.000095
304.500000	0.002559
303.000000	0.003417
301.500000	-0.003419
300.000000	-0.009227
