PE UV       SUBTECH     SPECTRUM    ASCII       PEDS        4.00        
   -1
Sample99.Sample.Raw.asc
20/12/17
14:43:59.00
20/12/17
14:43:59.00
Administrator

300.000000
1
Lambda 850
850L1710193
PerkinElmer UV WinLab 6.4.0.973 / 2.02.06 Lambda 800 UV/VIS, Jan 28 2016 16:58:34

0
0
2
0
0
UV/VIS
1
1
1
RBeamAtt,SBeamAtt,60mm sphere
0
0
0
0
Fix
 
0
0.2
0
0
0
 
 
 
0
 
0
319.2
0
Front
100
 
S:100 R:100
 
0
0
0
 
0
 
 
 
0
 
 
0
0
0
0
0
 
 
 
 
0
0


0
0
#HDR
-1
-1
#GR
nm
%T
1.0
0.0
750.000000
-1.500000
301
8
75.628159
-0.025799
#DATA
750.000000	75.246960
748.500000	75.628159
747.000000	75.396781
745.500000	75.612551
744.000000	75.489978
742.500000	75.546196
741.000000	75.581116
739.500000	75.526810
738.000000	75.458988
736.500000	75.416195
735.000000	75.570754
733.500000	75.435431
732.000000	75.488121
730.500000	75.423814
729.000000	75.385906
727.500000	75.271030
726.000000	75.305634
724.500000	75.461623
723.000000	75.456234
721.500000	75.383114
720.000000	75.209955
718.500000	75.234688
717.000000	75.367187
715.500000	75.248922
714.000000	75.238252
712.500000	75.280429
711.000000	75.263212
709.500000	75.276187
708.000000	75.297698
706.500000	75.284198
705.000000	75.179001
703.500000	75.355869
702.000000	75.235016
700.500000	75.212545
699.000000	75.136114
697.500000	75.243866
696.000000	75.120802
694.500000	75.119902
693.000000	75.124854
691.500000	75.025374
690.000000	74.914868
688.500000	75.116641
687.000000	75.131311
685.500000	75.129719
684.000000	75.158261
682.500000	75.057764
681.000000	74.898262
679.500000	74.952991
678.000000	75.015180
676.500000	75.043321
675.000000	75.055973
673.500000	74.962240
672.000000	74.946074
670.500000	74.960210
669.000000	74.910944
667.500000	74.940290
666.000000	74.934280
664.500000	74.893702
663.000000	74.905498
661.500000	74.932761
660.000000	74.853013
658.500000	74.816580
657.000000	74.877452
655.500000	74.845281
654.000000	74.845159
652.500000	74.862835
651.000000	74.824328
649.500000	74.784997
648.000000	74.722190
646.500000	74.791639
645.000000	74.715217
643.500000	74.718959
642.000000	74.705358
640.500000	74.671160
639.000000	74.672407
637.500000	74.655146
636.000000	74.646380
634.500000	74.688461
633.000000	74.606455
631.500000	74.579240
630.000000	74.570030
628.500000	74.562786
627.000000	74.570736
625.500000	74.584331
624.000000	74.564966
622.500000	74.504377
621.000000	74.488826
619.500000	74.481970
618.000000	74.431077
616.500000	74.449179
615.000000	74.443055
613.500000	74.421756
612.000000	74.383936
610.500000	74.335192
609.000000	74.335802
607.500000	74.345948
606.000000	74.310716
604.500000	74.347838
603.000000	74.346371
601.500000	74.302960
600.000000	74.290686
598.500000	74.260486
597.000000	74.239623
595.500000	74.190392
594.000000	74.196192
592.500000	74.206347
591.000000	74.173640
589.500000	74.173523
588.000000	74.162841
586.500000	74.089375
585.000000	74.051619
583.500000	74.070993
582.000000	74.079574
580.500000	74.071644
579.000000	74.062555
577.500000	74.009634
576.000000	73.990413
574.500000	74.012226
573.000000	73.942525
571.500000	73.909694
570.000000	73.915067
568.500000	73.881346
567.000000	73.830195
565.500000	73.771732
564.000000	73.730315
562.500000	73.782340
561.000000	73.950623
559.500000	74.047602
558.000000	74.040508
556.500000	74.044197
555.000000	74.031821
553.500000	74.002655
552.000000	73.983245
550.500000	73.983670
549.000000	73.972673
547.500000	73.949945
546.000000	73.959166
544.500000	73.968750
543.000000	73.957244
541.500000	73.940689
540.000000	73.930953
538.500000	73.907473
537.000000	73.915010
535.500000	73.935132
534.000000	73.928854
532.500000	73.946881
531.000000	73.983502
529.500000	73.978058
528.000000	73.934650
526.500000	73.918527
525.000000	73.921597
523.500000	73.887729
522.000000	73.828440
520.500000	73.786663
519.000000	73.704895
517.500000	73.563519
516.000000	73.383340
514.500000	73.219546
513.000000	73.014193
511.500000	72.749534
510.000000	72.505578
508.500000	72.270755
507.000000	72.014011
505.500000	71.825732
504.000000	71.677843
502.500000	71.546266
501.000000	71.504368
499.500000	71.504698
498.000000	71.515198
496.500000	71.560961
495.000000	71.637434
493.500000	71.714356
492.000000	71.861862
490.500000	71.983984
489.000000	72.149122
487.500000	72.291463
486.000000	72.434378
484.500000	72.682350
483.000000	73.057155
481.500000	73.431392
480.000000	73.566637
478.500000	73.326973
477.000000	73.151988
475.500000	73.060934
474.000000	72.897935
472.500000	72.782553
471.000000	72.675859
469.500000	72.470197
468.000000	72.219271
466.500000	71.998763
465.000000	71.703441
463.500000	71.445821
462.000000	71.244311
460.500000	71.137025
459.000000	70.977263
457.500000	70.848036
456.000000	70.811739
454.500000	70.795245
453.000000	70.820771
451.500000	70.817169
450.000000	70.832259
448.500000	70.820721
447.000000	70.795078
445.500000	70.811761
444.000000	71.065442
442.500000	71.252644
441.000000	71.081719
439.500000	71.057575
438.000000	70.991128
436.500000	70.895811
435.000000	70.842723
433.500000	70.764849
432.000000	70.731995
430.500000	70.722825
429.000000	70.635134
427.500000	70.580603
426.000000	70.555888
424.500000	70.503267
423.000000	70.378645
421.500000	70.369031
420.000000	70.256439
418.500000	70.221097
417.000000	70.164232
415.500000	70.101557
414.000000	70.016987
412.500000	69.892523
411.000000	69.869788
409.500000	69.725364
408.000000	69.716169
406.500000	69.659668
405.000000	69.504079
403.500000	69.436560
402.000000	69.343898
400.500000	69.267657
399.000000	69.250705
397.500000	69.097550
396.000000	69.022377
394.500000	68.950416
393.000000	68.820520
391.500000	68.709497
390.000000	68.615557
388.500000	68.455356
387.000000	68.291695
385.500000	68.021428
384.000000	67.993834
382.500000	67.784571
381.000000	67.504364
379.500000	67.321466
378.000000	67.169646
376.500000	67.754898
375.000000	68.011168
373.500000	67.038101
372.000000	66.125989
370.500000	64.994005
369.000000	63.987234
367.500000	62.609359
366.000000	60.998193
364.500000	59.240054
363.000000	57.005554
361.500000	54.296189
360.000000	51.286117
358.500000	47.736778
357.000000	43.624557
355.500000	38.882167
354.000000	33.774740
352.500000	28.469225
351.000000	22.959829
349.500000	17.691664
348.000000	12.904048
346.500000	8.771081
345.000000	5.472884
343.500000	3.090414
342.000000	1.516200
340.500000	0.647742
339.000000	0.254461
337.500000	0.089138
336.000000	0.055116
334.500000	0.052300
333.000000	0.064842
331.500000	0.057518
330.000000	0.067138
328.500000	0.064260
327.000000	0.073371
325.500000	0.073700
324.000000	0.084206
322.500000	0.079666
321.000000	0.072355
319.500000	0.075195
318.000000	0.005074
316.500000	-0.025799
315.000000	-0.022051
313.500000	-0.013427
312.000000	-0.021436
310.500000	-0.024550
309.000000	-0.019239
307.500000	-0.013145
306.000000	0.000663
304.500000	-0.001706
303.000000	-0.003132
301.500000	-0.007218
300.000000	-0.007420
