PE UV       SUBTECH     SPECTRUM    ASCII       PEDS        4.00        
   -1
Sample104.Sample.Raw.asc
20/12/17
15:01:27.00
20/12/17
15:01:27.00
Administrator

300.000000
1
Lambda 850
850L1710193
PerkinElmer UV WinLab 6.4.0.973 / 2.02.06 Lambda 800 UV/VIS, Jan 28 2016 16:58:34

0
0
2
0
0
UV/VIS
1
1
1
RBeamAtt,SBeamAtt,60mm sphere
0
0
0
0
Fix
 
0
0.2
0
0
0
 
 
 
0
 
0
319.2
0
Front
100
 
S:100 R:100
 
0
0
0
 
0
 
 
 
0
 
 
0
0
0
0
0
 
 
 
 
0
0


0
0
#HDR
-1
-1
#GR
nm
%T
1.0
0.0
750.000000
-1.500000
301
8
74.449502
-0.026179
#DATA
750.000000	74.214544
748.500000	74.449502
747.000000	74.319787
745.500000	74.376597
744.000000	74.445042
742.500000	74.379374
741.000000	74.296396
739.500000	74.313815
738.000000	74.370499
736.500000	74.248595
735.000000	74.400811
733.500000	74.413854
732.000000	74.353129
730.500000	74.349785
729.000000	74.281801
727.500000	74.273562
726.000000	74.191776
724.500000	74.305485
723.000000	74.327293
721.500000	74.407088
720.000000	74.235019
718.500000	74.215725
717.000000	74.255728
715.500000	74.185127
714.000000	74.172436
712.500000	74.173519
711.000000	74.223553
709.500000	74.188452
708.000000	74.226841
706.500000	74.235064
705.000000	74.202618
703.500000	74.261849
702.000000	74.184225
700.500000	74.188949
699.000000	74.018582
697.500000	74.165269
696.000000	74.056797
694.500000	74.013441
693.000000	74.062086
691.500000	74.014500
690.000000	73.934847
688.500000	74.016707
687.000000	74.018819
685.500000	74.048655
684.000000	73.993068
682.500000	73.933438
681.000000	73.880146
679.500000	73.957391
678.000000	73.988622
676.500000	73.922474
675.000000	73.943081
673.500000	73.877184
672.000000	73.972862
670.500000	73.968076
669.000000	73.865239
667.500000	73.882290
666.000000	73.918059
664.500000	73.875767
663.000000	73.882908
661.500000	73.916990
660.000000	73.847728
658.500000	73.810990
657.000000	73.816629
655.500000	73.853103
654.000000	73.828880
652.500000	73.809095
651.000000	73.764827
649.500000	73.751615
648.000000	73.720288
646.500000	73.702585
645.000000	73.725665
643.500000	73.699346
642.000000	73.688243
640.500000	73.662708
639.000000	73.680637
637.500000	73.667544
636.000000	73.627404
634.500000	73.667750
633.000000	73.559775
631.500000	73.582595
630.000000	73.599127
628.500000	73.598458
627.000000	73.567829
625.500000	73.552771
624.000000	73.542929
622.500000	73.499777
621.000000	73.466849
619.500000	73.472459
618.000000	73.420180
616.500000	73.371766
615.000000	73.374801
613.500000	73.385262
612.000000	73.340666
610.500000	73.293493
609.000000	73.312754
607.500000	73.337200
606.000000	73.266313
604.500000	73.257627
603.000000	73.286699
601.500000	73.279053
600.000000	73.299669
598.500000	73.273889
597.000000	73.211786
595.500000	73.146253
594.000000	73.160864
592.500000	73.148472
591.000000	73.144508
589.500000	73.168221
588.000000	73.119890
586.500000	73.058469
585.000000	73.029194
583.500000	73.009059
582.000000	72.998981
580.500000	72.983388
579.000000	72.959183
577.500000	72.919013
576.000000	72.910984
574.500000	72.880500
573.000000	72.833087
571.500000	72.809636
570.000000	72.812952
568.500000	72.779728
567.000000	72.715778
565.500000	72.671956
564.000000	72.627966
562.500000	72.638728
561.000000	72.796959
559.500000	72.886155
558.000000	72.854214
556.500000	72.861204
555.000000	72.835758
553.500000	72.789661
552.000000	72.777322
550.500000	72.760491
549.000000	72.731700
547.500000	72.717029
546.000000	72.731236
544.500000	72.691619
543.000000	72.635079
541.500000	72.637067
540.000000	72.609058
538.500000	72.585417
537.000000	72.592828
535.500000	72.600709
534.000000	72.582973
532.500000	72.547151
531.000000	72.509940
529.500000	72.504676
528.000000	72.486644
526.500000	72.453699
525.000000	72.432623
523.500000	72.382047
522.000000	72.304404
520.500000	72.223920
519.000000	72.142212
517.500000	72.014501
516.000000	71.847050
514.500000	71.661261
513.000000	71.449635
511.500000	71.210187
510.000000	70.971908
508.500000	70.758003
507.000000	70.528281
505.500000	70.351261
504.000000	70.261826
502.500000	70.228284
501.000000	70.191853
499.500000	70.200454
498.000000	70.269368
496.500000	70.391986
495.000000	70.531279
493.500000	70.672047
492.000000	70.814386
490.500000	70.942609
489.000000	71.130525
487.500000	71.252259
486.000000	71.363147
484.500000	71.570734
483.000000	71.852006
481.500000	72.160020
480.000000	72.232850
478.500000	71.929707
477.000000	71.692916
475.500000	71.572803
474.000000	71.383371
472.500000	71.250542
471.000000	71.094647
469.500000	70.863676
468.000000	70.649214
466.500000	70.376538
465.000000	70.091624
463.500000	69.839418
462.000000	69.649855
460.500000	69.529144
459.000000	69.445306
457.500000	69.382154
456.000000	69.378235
454.500000	69.364498
453.000000	69.407933
451.500000	69.380726
450.000000	69.416498
448.500000	69.522876
447.000000	69.512236
445.500000	69.558915
444.000000	69.809862
442.500000	69.978747
441.000000	69.861273
439.500000	69.763159
438.000000	69.687675
436.500000	69.573703
435.000000	69.567195
433.500000	69.497880
432.000000	69.426737
430.500000	69.402663
429.000000	69.241483
427.500000	69.240063
426.000000	69.170026
424.500000	69.041756
423.000000	68.969350
421.500000	68.943181
420.000000	68.884089
418.500000	68.740799
417.000000	68.709509
415.500000	68.644144
414.000000	68.565597
412.500000	68.457305
411.000000	68.409598
409.500000	68.247520
408.000000	68.167132
406.500000	68.128774
405.000000	67.981897
403.500000	67.863569
402.000000	67.783957
400.500000	67.647582
399.000000	67.544046
397.500000	67.450874
396.000000	67.317669
394.500000	67.145122
393.000000	67.053841
391.500000	66.949592
390.000000	66.688728
388.500000	66.568918
387.000000	66.387092
385.500000	65.975666
384.000000	65.791735
382.500000	65.613080
381.000000	65.265137
379.500000	64.975382
378.000000	64.589841
376.500000	65.035116
375.000000	65.065054
373.500000	63.938766
372.000000	62.876727
370.500000	61.353460
369.000000	59.863191
367.500000	58.220304
366.000000	55.946453
364.500000	53.420632
363.000000	50.521647
361.500000	47.203930
360.000000	43.136216
358.500000	38.620075
357.000000	33.765638
355.500000	28.400120
354.000000	23.042929
352.500000	17.752744
351.000000	12.951340
349.500000	8.914952
348.000000	5.735613
346.500000	3.451191
345.000000	1.925781
343.500000	1.017251
342.000000	0.492594
340.500000	0.218099
339.000000	0.085006
337.500000	0.028417
336.000000	0.033070
334.500000	0.030732
333.000000	0.037145
331.500000	0.024863
330.000000	0.025594
328.500000	0.031944
327.000000	0.033156
325.500000	0.027731
324.000000	0.029495
322.500000	0.032239
321.000000	0.039161
319.500000	0.021058
318.000000	0.007423
316.500000	-0.021389
315.000000	-0.026179
313.500000	-0.020845
312.000000	-0.024820
310.500000	-0.021822
309.000000	-0.013769
307.500000	-0.007566
306.000000	-0.002841
304.500000	-0.001611
303.000000	-0.007118
301.500000	-0.005888
300.000000	-0.005803
