PE UV       SUBTECH     SPECTRUM    ASCII       PEDS        4.00        
   -1
Sample97.Sample.Raw.asc
20/12/17
14:38:14.00
20/12/17
14:38:14.00
Administrator

300.000000
1
Lambda 850
850L1710193
PerkinElmer UV WinLab 6.4.0.973 / 2.02.06 Lambda 800 UV/VIS, Jan 28 2016 16:58:34

0
0
2
0
0
UV/VIS
1
1
1
RBeamAtt,SBeamAtt,60mm sphere
0
0
0
0
Fix
 
0
0.2
0
0
0
 
 
 
0
 
0
319.2
0
Front
100
 
S:100 R:100
 
0
0
0
 
0
 
 
 
0
 
 
0
0
0
0
0
 
 
 
 
0
0


0
0
#HDR
-1
-1
#GR
nm
%T
1.0
0.0
750.000000
-1.500000
301
8
74.633599
-0.032748
#DATA
750.000000	74.297501
748.500000	74.633599
747.000000	74.560346
745.500000	74.533290
744.000000	74.458038
742.500000	74.384377
741.000000	74.465232
739.500000	74.437989
738.000000	74.426705
736.500000	74.259337
735.000000	74.415939
733.500000	74.511389
732.000000	74.607340
730.500000	74.359745
729.000000	74.305045
727.500000	74.307170
726.000000	74.280275
724.500000	74.375852
723.000000	74.398436
721.500000	74.343747
720.000000	74.235587
718.500000	74.303649
717.000000	74.353932
715.500000	74.215930
714.000000	74.329374
712.500000	74.332486
711.000000	74.347140
709.500000	74.316330
708.000000	74.284446
706.500000	74.339766
705.000000	74.287482
703.500000	74.343825
702.000000	74.189529
700.500000	74.241178
699.000000	74.073126
697.500000	74.155144
696.000000	74.100369
694.500000	74.126814
693.000000	74.074987
691.500000	74.061451
690.000000	73.952241
688.500000	74.123658
687.000000	74.198781
685.500000	74.155918
684.000000	74.149405
682.500000	74.126584
681.000000	73.958853
679.500000	74.000532
678.000000	74.073677
676.500000	74.011574
675.000000	74.034113
673.500000	73.972413
672.000000	74.038722
670.500000	74.005569
669.000000	73.967825
667.500000	73.964173
666.000000	74.014853
664.500000	73.919911
663.000000	73.939080
661.500000	73.912965
660.000000	73.876793
658.500000	73.868887
657.000000	73.844154
655.500000	73.843241
654.000000	73.800036
652.500000	73.816002
651.000000	73.823391
649.500000	73.799234
648.000000	73.752350
646.500000	73.768050
645.000000	73.796013
643.500000	73.741957
642.000000	73.714823
640.500000	73.705176
639.000000	73.720308
637.500000	73.690757
636.000000	73.642964
634.500000	73.696826
633.000000	73.652907
631.500000	73.606644
630.000000	73.602423
628.500000	73.631748
627.000000	73.617768
625.500000	73.595049
624.000000	73.573100
622.500000	73.530028
621.000000	73.549362
619.500000	73.523330
618.000000	73.444903
616.500000	73.482285
615.000000	73.493863
613.500000	73.464187
612.000000	73.399207
610.500000	73.322347
609.000000	73.336011
607.500000	73.356835
606.000000	73.343689
604.500000	73.315962
603.000000	73.304278
601.500000	73.328569
600.000000	73.318656
598.500000	73.275375
597.000000	73.255689
595.500000	73.203426
594.000000	73.191807
592.500000	73.174548
591.000000	73.163654
589.500000	73.163103
588.000000	73.118075
586.500000	73.072166
585.000000	73.056171
583.500000	73.085807
582.000000	73.096377
580.500000	73.026133
579.000000	72.990623
577.500000	72.961499
576.000000	72.949432
574.500000	72.918375
573.000000	72.873420
571.500000	72.848564
570.000000	72.844632
568.500000	72.794082
567.000000	72.735738
565.500000	72.695461
564.000000	72.634976
562.500000	72.645819
561.000000	72.801580
559.500000	72.884338
558.000000	72.853636
556.500000	72.858810
555.000000	72.840217
553.500000	72.789661
552.000000	72.788384
550.500000	72.781378
549.000000	72.757206
547.500000	72.730319
546.000000	72.737924
544.500000	72.735462
543.000000	72.665617
541.500000	72.636490
540.000000	72.623499
538.500000	72.612809
537.000000	72.618080
535.500000	72.608220
534.000000	72.612273
532.500000	72.603678
531.000000	72.571586
529.500000	72.548668
528.000000	72.526178
526.500000	72.486304
525.000000	72.455492
523.500000	72.405168
522.000000	72.340494
520.500000	72.271747
519.000000	72.172608
517.500000	72.053321
516.000000	71.877034
514.500000	71.689182
513.000000	71.471029
511.500000	71.244873
510.000000	71.000395
508.500000	70.779058
507.000000	70.562294
505.500000	70.379329
504.000000	70.267771
502.500000	70.205156
501.000000	70.192762
499.500000	70.214997
498.000000	70.283502
496.500000	70.426652
495.000000	70.540058
493.500000	70.709095
492.000000	70.859586
490.500000	70.993748
489.000000	71.175502
487.500000	71.313981
486.000000	71.418157
484.500000	71.592813
483.000000	71.871604
481.500000	72.169624
480.000000	72.228251
478.500000	71.947167
477.000000	71.682312
475.500000	71.542912
474.000000	71.361087
472.500000	71.230342
471.000000	71.088637
469.500000	70.877859
468.000000	70.640374
466.500000	70.389124
465.000000	70.084546
463.500000	69.846158
462.000000	69.673481
460.500000	69.574743
459.000000	69.480577
457.500000	69.394961
456.000000	69.392553
454.500000	69.359669
453.000000	69.408684
451.500000	69.454262
450.000000	69.465979
448.500000	69.517614
447.000000	69.494936
445.500000	69.566276
444.000000	69.802405
442.500000	69.996045
441.000000	69.834673
439.500000	69.743090
438.000000	69.661052
436.500000	69.551943
435.000000	69.549538
433.500000	69.502337
432.000000	69.390975
430.500000	69.368123
429.000000	69.308850
427.500000	69.238968
426.000000	69.164292
424.500000	69.096189
423.000000	68.979816
421.500000	68.944702
420.000000	68.842310
418.500000	68.776503
417.000000	68.803816
415.500000	68.648388
414.000000	68.521324
412.500000	68.459773
411.000000	68.445701
409.500000	68.265220
408.000000	68.192447
406.500000	68.157270
405.000000	67.989492
403.500000	67.890239
402.000000	67.773700
400.500000	67.665630
399.000000	67.617418
397.500000	67.468347
396.000000	67.382344
394.500000	67.255093
393.000000	66.998328
391.500000	66.860060
390.000000	66.731339
388.500000	66.552156
387.000000	66.344339
385.500000	66.050509
384.000000	65.845982
382.500000	65.607339
381.000000	65.243228
379.500000	64.940021
378.000000	64.590380
376.500000	65.067371
375.000000	64.893980
373.500000	63.921823
372.000000	62.718369
370.500000	61.391394
369.000000	59.939834
367.500000	58.112882
366.000000	56.016886
364.500000	53.488871
363.000000	50.542920
361.500000	47.089976
360.000000	43.134022
358.500000	38.710625
357.000000	33.836436
355.500000	28.503518
354.000000	23.062007
352.500000	17.813113
351.000000	12.980921
349.500000	8.944824
348.000000	5.776209
346.500000	3.501611
345.000000	1.964968
343.500000	1.036351
342.000000	0.500628
340.500000	0.214960
339.000000	0.088339
337.500000	0.043690
336.000000	0.029828
334.500000	0.028603
333.000000	0.028808
331.500000	0.022172
330.000000	0.030416
328.500000	0.036494
327.000000	0.036221
325.500000	0.049320
324.000000	0.053594
322.500000	0.045097
321.000000	0.040653
319.500000	0.038296
318.000000	0.000846
316.500000	-0.026268
315.000000	-0.032748
313.500000	-0.026949
312.000000	-0.023692
310.500000	-0.019847
309.000000	-0.015372
307.500000	-0.013996
306.000000	-0.004641
304.500000	-0.002654
303.000000	-0.004460
301.500000	-0.004559
300.000000	-0.005042
