PE UV       SUBTECH     SPECTRUM    ASCII       PEDS        4.00        
   -1
Sample103.Sample.Raw.asc
20/12/17
14:58:00.00
20/12/17
14:58:00.00
Administrator

300.000000
1
Lambda 850
850L1710193
PerkinElmer UV WinLab 6.4.0.973 / 2.02.06 Lambda 800 UV/VIS, Jan 28 2016 16:58:34

0
0
2
0
0
UV/VIS
1
1
1
RBeamAtt,SBeamAtt,60mm sphere
0
0
0
0
Fix
 
0
0.2
0
0
0
 
 
 
0
 
0
319.2
0
Front
100
 
S:100 R:100
 
0
0
0
 
0
 
 
 
0
 
 
0
0
0
0
0
 
 
 
 
0
0


0
0
#HDR
-1
-1
#GR
nm
%T
1.0
0.0
750.000000
-1.500000
301
8
75.586973
-0.023891
#DATA
750.000000	75.324767
748.500000	75.559082
747.000000	75.441749
745.500000	75.586973
744.000000	75.583211
742.500000	75.496819
741.000000	75.552774
739.500000	75.407642
738.000000	75.275756
736.500000	75.321621
735.000000	75.412437
733.500000	75.381200
732.000000	75.397036
730.500000	75.439037
729.000000	75.307510
727.500000	75.197416
726.000000	75.274028
724.500000	75.381680
723.000000	75.333521
721.500000	75.282011
720.000000	75.250287
718.500000	75.299636
717.000000	75.286136
715.500000	75.194062
714.000000	75.246380
712.500000	75.252199
711.000000	75.190428
709.500000	75.201218
708.000000	75.251011
706.500000	75.282078
705.000000	75.205251
703.500000	75.311125
702.000000	75.256394
700.500000	75.174680
699.000000	75.126738
697.500000	75.230066
696.000000	75.088001
694.500000	75.087906
693.000000	75.123711
691.500000	75.035336
690.000000	74.891023
688.500000	75.102904
687.000000	75.054827
685.500000	75.139790
684.000000	75.111581
682.500000	75.130797
681.000000	74.969769
679.500000	75.001944
678.000000	75.021489
676.500000	75.013976
675.000000	75.012835
673.500000	74.929295
672.000000	74.938610
670.500000	74.983017
669.000000	74.908730
667.500000	74.926588
666.000000	75.016789
664.500000	74.934071
663.000000	74.958631
661.500000	74.954613
660.000000	74.920995
658.500000	74.894760
657.000000	74.864881
655.500000	74.830898
654.000000	74.837516
652.500000	74.824109
651.000000	74.832307
649.500000	74.779404
648.000000	74.774393
646.500000	74.776589
645.000000	74.718673
643.500000	74.692882
642.000000	74.728152
640.500000	74.668280
639.000000	74.659238
637.500000	74.666505
636.000000	74.673960
634.500000	74.704770
633.000000	74.672249
631.500000	74.672143
630.000000	74.623411
628.500000	74.591708
627.000000	74.560188
625.500000	74.564140
624.000000	74.570819
622.500000	74.557624
621.000000	74.510341
619.500000	74.515857
618.000000	74.414678
616.500000	74.428740
615.000000	74.445611
613.500000	74.435611
612.000000	74.434067
610.500000	74.378884
609.000000	74.368296
607.500000	74.376143
606.000000	74.359385
604.500000	74.342062
603.000000	74.346536
601.500000	74.340840
600.000000	74.325522
598.500000	74.311747
597.000000	74.292274
595.500000	74.263571
594.000000	74.271611
592.500000	74.265512
591.000000	74.250557
589.500000	74.210919
588.000000	74.214424
586.500000	74.188473
585.000000	74.126529
583.500000	74.138169
582.000000	74.123401
580.500000	74.066693
579.000000	74.070889
577.500000	74.060288
576.000000	74.061781
574.500000	74.009503
573.000000	73.957948
571.500000	73.970479
570.000000	73.972981
568.500000	73.932083
567.000000	73.888428
565.500000	73.831112
564.000000	73.808984
562.500000	73.844596
561.000000	73.993948
559.500000	74.107714
558.000000	74.100536
556.500000	74.096963
555.000000	74.080371
553.500000	74.050778
552.000000	74.046480
550.500000	74.050955
549.000000	74.031527
547.500000	74.030263
546.000000	74.034219
544.500000	74.035381
543.000000	74.047210
541.500000	74.048712
540.000000	74.010415
538.500000	73.992122
537.000000	74.022950
535.500000	74.046643
534.000000	74.032599
532.500000	74.012320
531.000000	74.015191
529.500000	74.027911
528.000000	74.008107
526.500000	74.000081
525.000000	73.994168
523.500000	73.956844
522.000000	73.913090
520.500000	73.839445
519.000000	73.754702
517.500000	73.633809
516.000000	73.480561
514.500000	73.289348
513.000000	73.058303
511.500000	72.816925
510.000000	72.571304
508.500000	72.325746
507.000000	72.071882
505.500000	71.884096
504.000000	71.749928
502.500000	71.641835
501.000000	71.598237
499.500000	71.549236
498.000000	71.559172
496.500000	71.618545
495.000000	71.740711
493.500000	71.847380
492.000000	71.967025
490.500000	72.091824
489.000000	72.236000
487.500000	72.374396
486.000000	72.476321
484.500000	72.747504
483.000000	73.108277
481.500000	73.470976
480.000000	73.631265
478.500000	73.432315
477.000000	73.254353
475.500000	73.131571
474.000000	73.001760
472.500000	72.908342
471.000000	72.768003
469.500000	72.557219
468.000000	72.328606
466.500000	72.099782
465.000000	71.816775
463.500000	71.538607
462.000000	71.329329
460.500000	71.214993
459.000000	71.070015
457.500000	70.982840
456.000000	70.971646
454.500000	70.923633
453.000000	70.944718
451.500000	70.914800
450.000000	70.912196
448.500000	70.966643
447.000000	70.907316
445.500000	70.907445
444.000000	71.203517
442.500000	71.392033
441.000000	71.231002
439.500000	71.164134
438.000000	71.099217
436.500000	71.043085
435.000000	70.981795
433.500000	70.942793
432.000000	70.859390
430.500000	70.851631
429.000000	70.731048
427.500000	70.632590
426.000000	70.612135
424.500000	70.607998
423.000000	70.543739
421.500000	70.468088
420.000000	70.401565
418.500000	70.293860
417.000000	70.312308
415.500000	70.225554
414.000000	70.121337
412.500000	70.040700
411.000000	69.970332
409.500000	69.845332
408.000000	69.833992
406.500000	69.741284
405.000000	69.619809
403.500000	69.529038
402.000000	69.528428
400.500000	69.378912
399.000000	69.348594
397.500000	69.221530
396.000000	69.201157
394.500000	69.004121
393.000000	68.821317
391.500000	68.826564
390.000000	68.689125
388.500000	68.548260
387.000000	68.359528
385.500000	68.155930
384.000000	68.022032
382.500000	67.866831
381.000000	67.551684
379.500000	67.389309
378.000000	67.215565
376.500000	67.765890
375.000000	68.040091
373.500000	67.068434
372.000000	66.158699
370.500000	65.055136
369.000000	64.033803
367.500000	62.791921
366.000000	61.125938
364.500000	59.261766
363.000000	57.077042
361.500000	54.369693
360.000000	51.234937
358.500000	47.696309
357.000000	43.544130
355.500000	38.825793
354.000000	33.738876
352.500000	28.288393
351.000000	22.788681
349.500000	17.576312
348.000000	12.775817
346.500000	8.631433
345.000000	5.350898
343.500000	2.986705
342.000000	1.456726
340.500000	0.603697
339.000000	0.215848
337.500000	0.068774
336.000000	0.036682
334.500000	0.028418
333.000000	0.035848
331.500000	0.033398
330.000000	0.026892
328.500000	0.032501
327.000000	0.031670
325.500000	0.033128
324.000000	0.048384
322.500000	0.034568
321.000000	0.035712
319.500000	0.024413
318.000000	0.015034
316.500000	-0.019513
315.000000	-0.023083
313.500000	-0.015963
312.000000	-0.017769
310.500000	-0.023891
309.000000	-0.014995
307.500000	-0.007660
306.000000	-0.004357
304.500000	0.000853
303.000000	-0.004176
301.500000	-0.002564
300.000000	-0.009703
