PE UV       SUBTECH     SPECTRUM    ASCII       PEDS        4.00        
   -1
Sample143.Sample.Raw.asc
21/01/19
15:10:51.00
21/01/19
15:10:51.00
Administrator

300.000000
1
Lambda 850
850L1710193
PerkinElmer UV WinLab 6.4.0.973 / 2.02.06 Lambda 800 UV/VIS, Jan 28 2016 16:58:34

0
0
2
0
0
UV/VIS
1
1
1
RBeamAtt,SBeamAtt,60mm sphere
0
0
0
0
Fix
 
0
0.2
0
0
0
 
 
 
0
 
0
319.2
0
Front
100
 
S:100 R:100
 
0
0
0
 
0
 
 
 
0
 
 
0
0
0
0
0
 
 
 
 
0
0


0
0
#HDR
-1
-1
#GR
nm
%T
1.0
0.0
750.000000
-1.500000
301
8
75.842230
-0.036764
#DATA
750.000000	75.475786
748.500000	75.842230
747.000000	75.760973
745.500000	75.690907
744.000000	75.838171
742.500000	75.688243
741.000000	75.693419
739.500000	75.681764
738.000000	75.709078
736.500000	75.606431
735.000000	75.659487
733.500000	75.678025
732.000000	75.668275
730.500000	75.556248
729.000000	75.695749
727.500000	75.505461
726.000000	75.588366
724.500000	75.656673
723.000000	75.557280
721.500000	75.637828
720.000000	75.556604
718.500000	75.429821
717.000000	75.463138
715.500000	75.407791
714.000000	75.465422
712.500000	75.468373
711.000000	75.335337
709.500000	75.426418
708.000000	75.385455
706.500000	75.566800
705.000000	75.577323
703.500000	75.567598
702.000000	75.384507
700.500000	75.344914
699.000000	75.449769
697.500000	75.433728
696.000000	75.337539
694.500000	75.292434
693.000000	75.332852
691.500000	75.301213
690.000000	75.117782
688.500000	75.289372
687.000000	75.286076
685.500000	75.322017
684.000000	75.328528
682.500000	75.376124
681.000000	75.292878
679.500000	75.279395
678.000000	75.303411
676.500000	75.323229
675.000000	75.319268
673.500000	75.254503
672.000000	75.287663
670.500000	75.247749
669.000000	75.214530
667.500000	75.190882
666.000000	75.172967
664.500000	75.171457
663.000000	75.168880
661.500000	75.192655
660.000000	75.207952
658.500000	75.140878
657.000000	75.180935
655.500000	75.167017
654.000000	75.154130
652.500000	75.080601
651.000000	75.131645
649.500000	75.026844
648.000000	75.001297
646.500000	75.040043
645.000000	75.037663
643.500000	75.062425
642.000000	75.045293
640.500000	75.007152
639.000000	74.994352
637.500000	75.003834
636.000000	74.985173
634.500000	74.968057
633.000000	74.914051
631.500000	74.889833
630.000000	74.893415
628.500000	74.913340
627.000000	74.931907
625.500000	74.877650
624.000000	74.866689
622.500000	74.828618
621.000000	74.792506
619.500000	74.811591
618.000000	74.785044
616.500000	74.763316
615.000000	74.760829
613.500000	74.721602
612.000000	74.741432
610.500000	74.735313
609.000000	74.758396
607.500000	74.730429
606.000000	74.677199
604.500000	74.681737
603.000000	74.670186
601.500000	74.680474
600.000000	74.669331
598.500000	74.607681
597.000000	74.581072
595.500000	74.557914
594.000000	74.569340
592.500000	74.566091
591.000000	74.550405
589.500000	74.553236
588.000000	74.525940
586.500000	74.464425
585.000000	74.462596
583.500000	74.472805
582.000000	74.463263
580.500000	74.482082
579.000000	74.458288
577.500000	74.420388
576.000000	74.429203
574.500000	74.412147
573.000000	74.377591
571.500000	74.337418
570.000000	74.307281
568.500000	74.273040
567.000000	74.266812
565.500000	74.223837
564.000000	74.189749
562.500000	74.190893
561.000000	74.359875
559.500000	74.471306
558.000000	74.428324
556.500000	74.445593
555.000000	74.439397
553.500000	74.432012
552.000000	74.438615
550.500000	74.429933
549.000000	74.442216
547.500000	74.444268
546.000000	74.403236
544.500000	74.423196
543.000000	74.465763
541.500000	74.469689
540.000000	74.441752
538.500000	74.440760
537.000000	74.473518
535.500000	74.480510
534.000000	74.481594
532.500000	74.493253
531.000000	74.506935
529.500000	74.510003
528.000000	74.514422
526.500000	74.511636
525.000000	74.482503
523.500000	74.444118
522.000000	74.408657
520.500000	74.388681
519.000000	74.295502
517.500000	74.143855
516.000000	73.991879
514.500000	73.808198
513.000000	73.619973
511.500000	73.371419
510.000000	73.106298
508.500000	72.866863
507.000000	72.649978
505.500000	72.457234
504.000000	72.298359
502.500000	72.188094
501.000000	72.119505
499.500000	72.087660
498.000000	72.193885
496.500000	72.266521
495.000000	72.360343
493.500000	72.441513
492.000000	72.588995
490.500000	72.666226
489.000000	72.826808
487.500000	72.958654
486.000000	73.133212
484.500000	73.342721
483.000000	73.731144
481.500000	74.176611
480.000000	74.333708
478.500000	74.070110
477.000000	73.838100
475.500000	73.790411
474.000000	73.689918
472.500000	73.588250
471.000000	73.423155
469.500000	73.265610
468.000000	73.036895
466.500000	72.812507
465.000000	72.547634
463.500000	72.280221
462.000000	72.083593
460.500000	71.925744
459.000000	71.831490
457.500000	71.753450
456.000000	71.693799
454.500000	71.641259
453.000000	71.634126
451.500000	71.630745
450.000000	71.672054
448.500000	71.643236
447.000000	71.647592
445.500000	71.690667
444.000000	71.912319
442.500000	72.101848
441.000000	72.063938
439.500000	71.865813
438.000000	71.877655
436.500000	71.854043
435.000000	71.858322
433.500000	71.804062
432.000000	71.689059
430.500000	71.607561
429.000000	71.575538
427.500000	71.524726
426.000000	71.483535
424.500000	71.422994
423.000000	71.373016
421.500000	71.372512
420.000000	71.289084
418.500000	71.192733
417.000000	71.102228
415.500000	71.044968
414.000000	71.070671
412.500000	70.956457
411.000000	70.852770
409.500000	70.865713
408.000000	70.738144
406.500000	70.611414
405.000000	70.610589
403.500000	70.509415
402.000000	70.528890
400.500000	70.423969
399.000000	70.287300
397.500000	70.224388
396.000000	70.186529
394.500000	70.075819
393.000000	69.884500
391.500000	69.922683
390.000000	69.764556
388.500000	69.592915
387.000000	69.400724
385.500000	69.312838
384.000000	69.129560
382.500000	68.865483
381.000000	68.641141
379.500000	68.439342
378.000000	68.394313
376.500000	68.986700
375.000000	69.184402
373.500000	68.475491
372.000000	67.389689
370.500000	66.472119
369.000000	65.440133
367.500000	64.225699
366.000000	62.815185
364.500000	60.983537
363.000000	58.847543
361.500000	56.331138
360.000000	53.331637
358.500000	50.004407
357.000000	45.879094
355.500000	41.314442
354.000000	36.391693
352.500000	30.964553
351.000000	25.340453
349.500000	19.904017
348.000000	14.807992
346.500000	10.339730
345.000000	6.643848
343.500000	3.861363
342.000000	1.995240
340.500000	0.877869
339.000000	0.334147
337.500000	0.119824
336.000000	0.048873
334.500000	0.045671
333.000000	0.041616
331.500000	0.043756
330.000000	0.041248
328.500000	0.042436
327.000000	0.049523
325.500000	0.044534
324.000000	0.044871
322.500000	0.050065
321.000000	0.050737
319.500000	0.052212
318.000000	-0.005085
316.500000	-0.030200
315.000000	-0.031335
313.500000	-0.034270
312.000000	-0.036764
310.500000	-0.031693
309.000000	-0.024844
307.500000	-0.020243
306.000000	-0.014415
304.500000	-0.010261
303.000000	-0.011428
301.500000	-0.021135
300.000000	-0.016296
