PE UV       SUBTECH     SPECTRUM    ASCII       PEDS        4.00        
   -1
Sample42.Sample.Raw.asc
20/12/15
15:08:41.00
20/12/15
15:08:41.00
Administrator

300.000000
1
Lambda 850
850L1710193
PerkinElmer UV WinLab 6.4.0.973 / 2.02.06 Lambda 800 UV/VIS, Jan 28 2016 16:58:34

0
0
2
0
0
UV/VIS
1
1
1
RBeamAtt,SBeamAtt,60mm sphere
0
0
0
0
Fix
 
0
0.2
0
0
0
 
 
 
0
 
0
319.2
0
Front
100
 
S:100 R:100
 
0
0
0
 
0
 
 
 
0
 
 
0
0
0
0
0
 
 
 
 
0
0


0
0
#HDR
-1
-1
#GR
nm
%T
1.0
0.0
750.000000
-1.500000
301
8
75.719807
-0.035215
#DATA
750.000000	75.242536
748.500000	75.563866
747.000000	75.707395
745.500000	75.582659
744.000000	75.719807
742.500000	75.556412
741.000000	75.491569
739.500000	75.505551
738.000000	75.635914
736.500000	75.623916
735.000000	75.594468
733.500000	75.580562
732.000000	75.522161
730.500000	75.531183
729.000000	75.394476
727.500000	75.361462
726.000000	75.455763
724.500000	75.459501
723.000000	75.408042
721.500000	75.412591
720.000000	75.384999
718.500000	75.411514
717.000000	75.414008
715.500000	75.410731
714.000000	75.348072
712.500000	75.256382
711.000000	75.507651
709.500000	75.225319
708.000000	75.169696
706.500000	75.340551
705.000000	75.328925
703.500000	75.317887
702.000000	75.222077
700.500000	75.146497
699.000000	75.252207
697.500000	75.121297
696.000000	75.187918
694.500000	75.130151
693.000000	75.088516
691.500000	75.141019
690.000000	74.930161
688.500000	75.208245
687.000000	75.132649
685.500000	75.202579
684.000000	75.114642
682.500000	75.049721
681.000000	75.110477
679.500000	75.146272
678.000000	75.057713
676.500000	75.068024
675.000000	74.987498
673.500000	74.956247
672.000000	74.997889
670.500000	75.039255
669.000000	74.980946
667.500000	75.012111
666.000000	74.936797
664.500000	74.934097
663.000000	75.003779
661.500000	74.953852
660.000000	74.932241
658.500000	74.846223
657.000000	74.883237
655.500000	74.840426
654.000000	74.815383
652.500000	74.840879
651.000000	74.819935
649.500000	74.837424
648.000000	74.861425
646.500000	74.771802
645.000000	74.734741
643.500000	74.763700
642.000000	74.754210
640.500000	74.682617
639.000000	74.705493
637.500000	74.728654
636.000000	74.678609
634.500000	74.653463
633.000000	74.637632
631.500000	74.699517
630.000000	74.650333
628.500000	74.618665
627.000000	74.565007
625.500000	74.566455
624.000000	74.595065
622.500000	74.588265
621.000000	74.571261
619.500000	74.580126
618.000000	74.492522
616.500000	74.486546
615.000000	74.473197
613.500000	74.410082
612.000000	74.406721
610.500000	74.480200
609.000000	74.467559
607.500000	74.401360
606.000000	74.345004
604.500000	74.302700
603.000000	74.305204
601.500000	74.320863
600.000000	74.292616
598.500000	74.273576
597.000000	74.302929
595.500000	74.258841
594.000000	74.222907
592.500000	74.271902
591.000000	74.219798
589.500000	74.200721
588.000000	74.163112
586.500000	74.123852
585.000000	74.135530
583.500000	74.108499
582.000000	74.080685
580.500000	74.062709
579.000000	74.071522
577.500000	74.086009
576.000000	74.041706
574.500000	74.019191
573.000000	74.027314
571.500000	74.029469
570.000000	73.981317
568.500000	73.923622
567.000000	73.896930
565.500000	73.853146
564.000000	73.799582
562.500000	73.816079
561.000000	73.932723
559.500000	74.038481
558.000000	74.043905
556.500000	74.046423
555.000000	74.021728
553.500000	74.041727
552.000000	74.056494
550.500000	74.039133
549.000000	74.009726
547.500000	74.006594
546.000000	74.014662
544.500000	74.012574
543.000000	74.011382
541.500000	74.012854
540.000000	74.007282
538.500000	74.030776
537.000000	74.036310
535.500000	73.999691
534.000000	73.981475
532.500000	74.005433
531.000000	74.022496
529.500000	74.033693
528.000000	74.015655
526.500000	73.985697
525.000000	73.970428
523.500000	73.944835
522.000000	73.888207
520.500000	73.838206
519.000000	73.745762
517.500000	73.615847
516.000000	73.458861
514.500000	73.287130
513.000000	73.077247
511.500000	72.831714
510.000000	72.581432
508.500000	72.326615
507.000000	72.093200
505.500000	71.881578
504.000000	71.702340
502.500000	71.598599
501.000000	71.551802
499.500000	71.596914
498.000000	71.616326
496.500000	71.629402
495.000000	71.675031
493.500000	71.765379
492.000000	71.929772
490.500000	72.039715
489.000000	72.170989
487.500000	72.349309
486.000000	72.486148
484.500000	72.692467
483.000000	73.024751
481.500000	73.451403
480.000000	73.595917
478.500000	73.427734
477.000000	73.236501
475.500000	73.103944
474.000000	72.971243
472.500000	72.875844
471.000000	72.700556
469.500000	72.537138
468.000000	72.333148
466.500000	72.101089
465.000000	71.783831
463.500000	71.502836
462.000000	71.306418
460.500000	71.161477
459.000000	71.029576
457.500000	70.899451
456.000000	70.843781
454.500000	70.856395
453.000000	70.794588
451.500000	70.763248
450.000000	70.814949
448.500000	70.823218
447.000000	70.738466
445.500000	70.760141
444.000000	71.056570
442.500000	71.226692
441.000000	71.177640
439.500000	71.074536
438.000000	70.971293
436.500000	70.923882
435.000000	70.890238
433.500000	70.785145
432.000000	70.785700
430.500000	70.710750
429.000000	70.614073
427.500000	70.583713
426.000000	70.527998
424.500000	70.490362
423.000000	70.324390
421.500000	70.273291
420.000000	70.200497
418.500000	70.149308
417.000000	70.074657
415.500000	69.934409
414.000000	69.906136
412.500000	69.806412
411.000000	69.760207
409.500000	69.652215
408.000000	69.570317
406.500000	69.491649
405.000000	69.429204
403.500000	69.254073
402.000000	69.242548
400.500000	69.091845
399.000000	68.906081
397.500000	68.891014
396.000000	68.769376
394.500000	68.680064
393.000000	68.535905
391.500000	68.428723
390.000000	68.271747
388.500000	68.150823
387.000000	67.907668
385.500000	67.833483
384.000000	67.586536
382.500000	67.272807
381.000000	66.986673
379.500000	66.777124
378.000000	66.600598
376.500000	67.211361
375.000000	67.390973
373.500000	66.430466
372.000000	65.449035
370.500000	64.360668
369.000000	63.121448
367.500000	61.688050
366.000000	60.166687
364.500000	58.108021
363.000000	55.897205
361.500000	53.074391
360.000000	49.777788
358.500000	46.234255
357.000000	41.843407
355.500000	37.010374
354.000000	31.798031
352.500000	26.390547
351.000000	20.961407
349.500000	15.841742
348.000000	11.235588
346.500000	7.403728
345.000000	4.433009
343.500000	2.388321
342.000000	1.116496
340.500000	0.458082
339.000000	0.166249
337.500000	0.088107
336.000000	0.054362
334.500000	0.063016
333.000000	0.058420
331.500000	0.062840
330.000000	0.056909
328.500000	0.059717
327.000000	0.068808
325.500000	0.067986
324.000000	0.068547
322.500000	0.068280
321.000000	0.077998
319.500000	0.061122
318.000000	-0.001787
316.500000	-0.035215
315.000000	-0.030621
313.500000	-0.027738
312.000000	-0.028421
310.500000	-0.021846
309.000000	-0.014148
307.500000	-0.009454
306.000000	-0.004928
304.500000	0.000664
303.000000	-0.000571
301.500000	-0.005612
300.000000	-0.003994
