PE UV       SUBTECH     SPECTRUM    ASCII       PEDS        4.00        
   -1
Sample144.Sample.Raw.asc
21/01/19
15:14:27.00
21/01/19
15:14:27.00
Administrator

300.000000
1
Lambda 850
850L1710193
PerkinElmer UV WinLab 6.4.0.973 / 2.02.06 Lambda 800 UV/VIS, Jan 28 2016 16:58:34

0
0
2
0
0
UV/VIS
1
1
1
RBeamAtt,SBeamAtt,60mm sphere
0
0
0
0
Fix
 
0
0.2
0
0
0
 
 
 
0
 
0
319.2
0
Front
100
 
S:100 R:100
 
0
0
0
 
0
 
 
 
0
 
 
0
0
0
0
0
 
 
 
 
0
0


0
0
#HDR
-1
-1
#GR
nm
%T
1.0
0.0
750.000000
-1.500000
301
8
75.609066
-0.038574
#DATA
750.000000	75.139700
748.500000	75.609066
747.000000	75.551236
745.500000	75.412323
744.000000	75.489742
742.500000	75.544601
741.000000	75.475155
739.500000	75.579787
738.000000	75.462519
736.500000	75.360555
735.000000	75.432881
733.500000	75.323829
732.000000	75.274115
730.500000	75.314667
729.000000	75.452672
727.500000	75.325397
726.000000	75.196068
724.500000	75.362272
723.000000	75.307304
721.500000	75.263892
720.000000	75.184409
718.500000	75.216181
717.000000	75.258845
715.500000	75.176070
714.000000	75.141526
712.500000	75.225606
711.000000	75.146334
709.500000	75.219816
708.000000	75.070829
706.500000	75.156267
705.000000	75.357714
703.500000	75.266967
702.000000	75.075089
700.500000	75.094535
699.000000	75.131140
697.500000	75.166686
696.000000	75.121508
694.500000	75.088262
693.000000	74.951316
691.500000	74.979756
690.000000	74.960739
688.500000	75.044936
687.000000	75.091508
685.500000	75.048398
684.000000	75.021683
682.500000	75.143098
681.000000	75.053767
679.500000	75.015735
678.000000	74.975328
676.500000	75.011151
675.000000	74.990655
673.500000	74.898909
672.000000	74.878071
670.500000	74.896100
669.000000	74.898727
667.500000	74.956481
666.000000	74.847789
664.500000	74.869450
663.000000	74.858708
661.500000	74.821491
660.000000	74.869104
658.500000	74.791912
657.000000	74.873958
655.500000	74.871187
654.000000	74.845747
652.500000	74.766349
651.000000	74.793718
649.500000	74.717315
648.000000	74.707957
646.500000	74.760152
645.000000	74.707186
643.500000	74.737214
642.000000	74.688802
640.500000	74.676867
639.000000	74.617645
637.500000	74.610825
636.000000	74.621979
634.500000	74.630682
633.000000	74.593924
631.500000	74.518100
630.000000	74.529443
628.500000	74.577428
627.000000	74.578153
625.500000	74.505753
624.000000	74.512321
622.500000	74.499760
621.000000	74.434054
619.500000	74.428208
618.000000	74.398891
616.500000	74.391028
615.000000	74.388376
613.500000	74.383213
612.000000	74.352703
610.500000	74.337993
609.000000	74.370127
607.500000	74.356212
606.000000	74.302973
604.500000	74.288726
603.000000	74.224348
601.500000	74.219646
600.000000	74.257234
598.500000	74.201853
597.000000	74.167885
595.500000	74.186913
594.000000	74.208484
592.500000	74.172237
591.000000	74.132883
589.500000	74.174512
588.000000	74.160811
586.500000	74.073655
585.000000	74.069466
583.500000	74.047364
582.000000	74.055166
580.500000	74.049804
579.000000	74.003675
577.500000	74.000678
576.000000	74.018857
574.500000	73.978989
573.000000	73.918102
571.500000	73.864065
570.000000	73.848373
568.500000	73.836972
567.000000	73.818771
565.500000	73.803216
564.000000	73.765082
562.500000	73.734231
561.000000	73.881975
559.500000	74.008042
558.000000	74.000311
556.500000	74.029963
555.000000	74.046148
553.500000	74.006357
552.000000	73.947386
550.500000	73.951164
549.000000	73.974226
547.500000	73.961253
546.000000	73.928634
544.500000	73.935960
543.000000	73.957635
541.500000	73.955005
540.000000	73.968515
538.500000	73.952649
537.000000	73.962785
535.500000	73.990786
534.000000	73.970359
532.500000	73.973503
531.000000	73.997204
529.500000	73.996024
528.000000	73.993242
526.500000	73.977478
525.000000	73.948342
523.500000	73.905294
522.000000	73.859646
520.500000	73.808371
519.000000	73.726558
517.500000	73.585349
516.000000	73.416979
514.500000	73.241590
513.000000	73.052944
511.500000	72.795580
510.000000	72.529931
508.500000	72.283603
507.000000	72.068601
505.500000	71.867896
504.000000	71.676054
502.500000	71.573209
501.000000	71.526745
499.500000	71.527227
498.000000	71.545288
496.500000	71.601644
495.000000	71.673692
493.500000	71.803012
492.000000	71.931747
490.500000	71.994297
489.000000	72.162070
487.500000	72.266676
486.000000	72.430252
484.500000	72.683931
483.000000	73.073955
481.500000	73.456833
480.000000	73.617423
478.500000	73.354800
477.000000	73.121355
475.500000	73.060815
474.000000	72.993732
472.500000	72.868537
471.000000	72.716186
469.500000	72.542040
468.000000	72.287642
466.500000	72.060071
465.000000	71.779315
463.500000	71.556331
462.000000	71.330818
460.500000	71.175522
459.000000	71.058570
457.500000	70.936093
456.000000	70.892422
454.500000	70.862071
453.000000	70.846004
451.500000	70.822361
450.000000	70.811633
448.500000	70.797084
447.000000	70.826947
445.500000	70.774966
444.000000	71.000122
442.500000	71.226442
441.000000	71.136854
439.500000	70.985963
438.000000	70.985545
436.500000	70.919383
435.000000	70.853211
433.500000	70.801389
432.000000	70.734581
430.500000	70.658717
429.000000	70.600253
427.500000	70.547183
426.000000	70.550109
424.500000	70.424418
423.000000	70.351505
421.500000	70.321731
420.000000	70.211401
418.500000	70.111505
417.000000	70.030580
415.500000	70.004733
414.000000	69.930342
412.500000	69.866288
411.000000	69.732193
409.500000	69.742005
408.000000	69.599742
406.500000	69.477903
405.000000	69.394979
403.500000	69.207686
402.000000	69.221383
400.500000	69.170894
399.000000	69.000089
397.500000	68.889946
396.000000	68.869548
394.500000	68.720853
393.000000	68.519119
391.500000	68.447683
390.000000	68.336880
388.500000	68.125431
387.000000	67.904837
385.500000	67.868698
384.000000	67.551557
382.500000	67.411042
381.000000	67.177882
379.500000	66.776981
378.000000	66.871323
376.500000	67.382883
375.000000	67.466561
373.500000	66.771772
372.000000	65.624678
370.500000	64.724111
369.000000	63.526283
367.500000	62.226450
366.000000	60.783639
364.500000	58.735247
363.000000	56.713339
361.500000	53.993314
360.000000	50.867789
358.500000	47.308262
357.000000	43.095343
355.500000	38.395122
354.000000	33.366111
352.500000	27.882435
351.000000	22.325973
349.500000	17.080293
348.000000	12.315986
346.500000	8.252607
345.000000	5.037654
343.500000	2.786997
342.000000	1.328491
340.500000	0.577986
339.000000	0.218096
337.500000	0.096916
336.000000	0.058054
334.500000	0.055140
333.000000	0.062516
331.500000	0.071255
330.000000	0.073184
328.500000	0.078543
327.000000	0.064975
325.500000	0.069038
324.000000	0.059301
322.500000	0.071321
321.000000	0.074937
319.500000	0.069865
318.000000	-0.001318
316.500000	-0.038574
315.000000	-0.035663
313.500000	-0.034929
312.000000	-0.032239
310.500000	-0.032542
309.000000	-0.028812
307.500000	-0.022797
306.000000	-0.014984
304.500000	-0.012351
303.000000	-0.015808
301.500000	-0.017708
300.000000	-0.021156
