PE UV       SUBTECH     SPECTRUM    ASCII       PEDS        4.00        
   -1
Sample113.Sample.Raw.asc
20/12/17
15:35:22.00
20/12/17
15:35:22.00
Administrator

300.000000
1
Lambda 850
850L1710193
PerkinElmer UV WinLab 6.4.0.973 / 2.02.06 Lambda 800 UV/VIS, Jan 28 2016 16:58:34

0
0
2
0
0
UV/VIS
1
1
1
RBeamAtt,SBeamAtt,60mm sphere
0
0
0
0
Fix
 
0
0.2
0
0
0
 
 
 
0
 
0
319.2
0
Front
100
 
S:100 R:100
 
0
0
0
 
0
 
 
 
0
 
 
0
0
0
0
0
 
 
 
 
0
0


0
0
#HDR
-1
-1
#GR
nm
%T
1.0
0.0
750.000000
-1.500000
301
8
75.156995
-0.038471
#DATA
750.000000	74.842152
748.500000	75.084814
747.000000	75.104806
745.500000	75.156995
744.000000	75.121324
742.500000	74.992718
741.000000	74.800400
739.500000	74.937752
738.000000	74.995781
736.500000	74.891151
735.000000	74.976641
733.500000	74.969363
732.000000	74.997366
730.500000	74.945991
729.000000	74.910266
727.500000	74.834774
726.000000	74.854304
724.500000	74.943086
723.000000	74.884982
721.500000	74.874434
720.000000	74.773449
718.500000	74.832981
717.000000	74.829993
715.500000	74.803053
714.000000	74.765161
712.500000	74.810281
711.000000	74.816574
709.500000	74.699068
708.000000	74.730290
706.500000	74.792330
705.000000	74.669166
703.500000	74.838049
702.000000	74.730509
700.500000	74.656802
699.000000	74.558719
697.500000	74.631526
696.000000	74.579008
694.500000	74.578997
693.000000	74.561093
691.500000	74.476252
690.000000	74.312205
688.500000	74.528161
687.000000	74.564758
685.500000	74.602410
684.000000	74.565837
682.500000	74.520901
681.000000	74.427739
679.500000	74.448560
678.000000	74.439462
676.500000	74.451093
675.000000	74.424897
673.500000	74.381686
672.000000	74.412472
670.500000	74.383783
669.000000	74.279930
667.500000	74.294660
666.000000	74.313447
664.500000	74.274129
663.000000	74.344190
661.500000	74.365770
660.000000	74.270647
658.500000	74.274161
657.000000	74.268450
655.500000	74.293633
654.000000	74.215439
652.500000	74.202768
651.000000	74.182755
649.500000	74.153289
648.000000	74.095498
646.500000	74.105902
645.000000	74.146021
643.500000	74.119777
642.000000	74.085461
640.500000	74.056690
639.000000	74.029114
637.500000	73.983876
636.000000	73.990471
634.500000	74.008179
633.000000	73.908421
631.500000	73.908002
630.000000	73.959530
628.500000	73.939100
627.000000	73.885924
625.500000	73.869153
624.000000	73.873661
622.500000	73.845634
621.000000	73.777201
619.500000	73.784035
618.000000	73.758712
616.500000	73.738019
615.000000	73.716319
613.500000	73.749289
612.000000	73.722091
610.500000	73.645013
609.000000	73.639008
607.500000	73.655079
606.000000	73.617225
604.500000	73.609782
603.000000	73.602702
601.500000	73.560056
600.000000	73.583642
598.500000	73.575266
597.000000	73.492286
595.500000	73.434843
594.000000	73.432837
592.500000	73.432332
591.000000	73.447223
589.500000	73.385494
588.000000	73.385972
586.500000	73.328449
585.000000	73.274302
583.500000	73.269426
582.000000	73.269460
580.500000	73.281446
579.000000	73.266404
577.500000	73.218397
576.000000	73.213699
574.500000	73.177150
573.000000	73.141397
571.500000	73.115785
570.000000	73.101619
568.500000	73.067981
567.000000	72.996960
565.500000	72.979662
564.000000	72.951464
562.500000	72.966746
561.000000	73.120035
559.500000	73.242120
558.000000	73.238003
556.500000	73.223551
555.000000	73.217712
553.500000	73.197762
552.000000	73.176379
550.500000	73.152311
549.000000	73.137901
547.500000	73.137935
546.000000	73.150014
544.500000	73.155393
543.000000	73.118252
541.500000	73.104480
540.000000	73.098209
538.500000	73.088861
537.000000	73.115858
535.500000	73.144152
534.000000	73.143214
532.500000	73.121748
531.000000	73.111463
529.500000	73.105386
528.000000	73.104671
526.500000	73.109512
525.000000	73.084106
523.500000	73.047523
522.000000	73.016705
520.500000	72.951063
519.000000	72.833562
517.500000	72.721859
516.000000	72.566171
514.500000	72.391666
513.000000	72.175621
511.500000	71.920273
510.000000	71.690356
508.500000	71.457860
507.000000	71.215629
505.500000	71.043959
504.000000	70.882432
502.500000	70.775599
501.000000	70.735980
499.500000	70.676077
498.000000	70.678280
496.500000	70.758423
495.000000	70.857013
493.500000	70.968926
492.000000	71.060954
490.500000	71.212417
489.000000	71.390661
487.500000	71.532419
486.000000	71.610066
484.500000	71.875424
483.000000	72.222449
481.500000	72.603714
480.000000	72.746282
478.500000	72.532522
477.000000	72.347682
475.500000	72.239928
474.000000	72.114572
472.500000	72.020303
471.000000	71.862426
469.500000	71.682747
468.000000	71.450839
466.500000	71.181441
465.000000	70.922847
463.500000	70.646531
462.000000	70.430986
460.500000	70.324722
459.000000	70.178343
457.500000	70.052599
456.000000	70.055073
454.500000	70.000774
453.000000	70.044669
451.500000	70.003026
450.000000	70.020785
448.500000	70.018109
447.000000	69.989938
445.500000	70.035831
444.000000	70.272849
442.500000	70.445112
441.000000	70.319696
439.500000	70.273452
438.000000	70.101975
436.500000	70.072234
435.000000	70.078247
433.500000	69.992524
432.000000	69.913852
430.500000	69.912329
429.000000	69.768965
427.500000	69.681236
426.000000	69.643449
424.500000	69.533089
423.000000	69.450876
421.500000	69.480304
420.000000	69.332828
418.500000	69.230170
417.000000	69.245585
415.500000	69.081996
414.000000	69.036959
412.500000	68.899624
411.000000	68.847450
409.500000	68.716192
408.000000	68.643059
406.500000	68.636374
405.000000	68.457762
403.500000	68.352715
402.000000	68.260188
400.500000	68.130352
399.000000	68.079369
397.500000	67.965142
396.000000	67.859736
394.500000	67.698600
393.000000	67.564083
391.500000	67.447702
390.000000	67.302538
388.500000	67.097634
387.000000	66.858980
385.500000	66.627191
384.000000	66.469015
382.500000	66.249448
381.000000	66.031600
379.500000	65.768627
378.000000	65.501026
376.500000	65.978530
375.000000	66.071605
373.500000	65.192528
372.000000	64.373296
370.500000	63.221946
369.000000	62.249236
367.500000	60.827784
366.000000	59.280476
364.500000	57.427084
363.000000	55.400030
361.500000	52.887197
360.000000	49.903992
358.500000	46.526107
357.000000	42.659987
355.500000	38.253072
354.000000	33.441048
352.500000	28.393879
351.000000	23.069977
349.500000	18.114194
348.000000	13.433635
346.500000	9.304416
345.000000	5.935474
343.500000	3.411321
342.000000	1.747628
340.500000	0.759746
339.000000	0.295668
337.500000	0.099505
336.000000	0.042611
334.500000	0.041284
333.000000	0.027141
331.500000	0.038500
330.000000	0.041266
328.500000	0.033244
327.000000	0.036686
325.500000	0.044295
324.000000	0.041126
322.500000	0.048359
321.000000	0.054453
319.500000	0.046403
318.000000	-0.006202
316.500000	-0.030208
315.000000	-0.038471
313.500000	-0.038029
312.000000	-0.036760
310.500000	-0.030570
309.000000	-0.024331
307.500000	-0.020616
306.000000	-0.015249
304.500000	-0.016680
303.000000	-0.014900
301.500000	-0.013106
300.000000	-0.020737
