PE UV       SUBTECH     SPECTRUM    ASCII       PEDS        4.00        
   -1
Sample112.Sample.Raw.asc
20/12/17
15:32:15.00
20/12/17
15:32:15.00
Administrator

300.000000
1
Lambda 850
850L1710193
PerkinElmer UV WinLab 6.4.0.973 / 2.02.06 Lambda 800 UV/VIS, Jan 28 2016 16:58:34

0
0
2
0
0
UV/VIS
1
1
1
RBeamAtt,SBeamAtt,60mm sphere
0
0
0
0
Fix
 
0
0.2
0
0
0
 
 
 
0
 
0
319.2
0
Front
100
 
S:100 R:100
 
0
0
0
 
0
 
 
 
0
 
 
0
0
0
0
0
 
 
 
 
0
0


0
0
#HDR
-1
-1
#GR
nm
%T
1.0
0.0
750.000000
-1.500000
301
8
74.014233
-0.027606
#DATA
750.000000	73.902429
748.500000	73.903981
747.000000	73.949319
745.500000	73.960982
744.000000	74.014233
742.500000	73.908757
741.000000	73.909066
739.500000	73.871134
738.000000	73.811275
736.500000	73.769102
735.000000	73.880800
733.500000	73.917918
732.000000	73.956701
730.500000	73.797871
729.000000	73.779030
727.500000	73.725307
726.000000	73.797500
724.500000	73.851227
723.000000	73.810535
721.500000	73.879650
720.000000	73.634427
718.500000	73.707746
717.000000	73.859743
715.500000	73.562407
714.000000	73.625467
712.500000	73.704836
711.000000	73.728148
709.500000	73.661149
708.000000	73.633605
706.500000	73.743441
705.000000	73.671506
703.500000	73.785426
702.000000	73.648304
700.500000	73.650833
699.000000	73.539756
697.500000	73.626256
696.000000	73.582646
694.500000	73.551137
693.000000	73.480605
691.500000	73.470523
690.000000	73.384693
688.500000	73.533298
687.000000	73.433861
685.500000	73.542635
684.000000	73.553214
682.500000	73.467643
681.000000	73.351862
679.500000	73.331805
678.000000	73.418885
676.500000	73.442544
675.000000	73.393442
673.500000	73.345064
672.000000	73.347074
670.500000	73.330527
669.000000	73.322624
667.500000	73.328060
666.000000	73.376698
664.500000	73.319456
663.000000	73.304437
661.500000	73.333405
660.000000	73.237200
658.500000	73.228496
657.000000	73.209435
655.500000	73.188364
654.000000	73.180260
652.500000	73.206829
651.000000	73.175155
649.500000	73.156588
648.000000	73.141689
646.500000	73.161595
645.000000	73.138862
643.500000	73.042829
642.000000	73.037240
640.500000	73.046262
639.000000	73.003023
637.500000	72.983680
636.000000	72.984092
634.500000	72.997764
633.000000	72.966154
631.500000	72.923545
630.000000	72.891174
628.500000	72.871360
627.000000	72.855657
625.500000	72.859186
624.000000	72.848738
622.500000	72.837325
621.000000	72.790010
619.500000	72.786974
618.000000	72.744930
616.500000	72.708407
615.000000	72.732580
613.500000	72.719805
612.000000	72.642459
610.500000	72.634476
609.000000	72.638392
607.500000	72.627273
606.000000	72.570925
604.500000	72.580629
603.000000	72.572493
601.500000	72.543081
600.000000	72.546893
598.500000	72.521724
597.000000	72.482356
595.500000	72.435007
594.000000	72.412114
592.500000	72.383370
591.000000	72.378807
589.500000	72.373175
588.000000	72.330228
586.500000	72.254388
585.000000	72.217804
583.500000	72.219210
582.000000	72.231292
580.500000	72.209033
579.000000	72.197031
577.500000	72.153103
576.000000	72.121895
574.500000	72.120597
573.000000	72.057528
571.500000	72.021087
570.000000	72.029040
568.500000	71.997548
567.000000	71.947703
565.500000	71.897618
564.000000	71.802359
562.500000	71.817114
561.000000	71.999462
559.500000	72.104040
558.000000	72.073508
556.500000	72.069378
555.000000	72.054015
553.500000	71.985759
552.000000	71.959477
550.500000	71.948698
549.000000	71.911374
547.500000	71.896351
546.000000	71.909451
544.500000	71.889160
543.000000	71.838098
541.500000	71.807707
540.000000	71.784483
538.500000	71.757317
537.000000	71.723119
535.500000	71.720586
534.000000	71.734772
532.500000	71.697014
531.000000	71.672149
529.500000	71.653216
528.000000	71.636196
526.500000	71.618352
525.000000	71.587783
523.500000	71.534740
522.000000	71.454845
520.500000	71.395177
519.000000	71.290207
517.500000	71.140297
516.000000	70.987838
514.500000	70.806121
513.000000	70.594625
511.500000	70.351773
510.000000	70.093933
508.500000	69.890199
507.000000	69.697372
505.500000	69.513188
504.000000	69.385495
502.500000	69.340902
501.000000	69.338934
499.500000	69.330021
498.000000	69.375085
496.500000	69.516558
495.000000	69.683691
493.500000	69.828404
492.000000	69.953432
490.500000	70.073081
489.000000	70.242702
487.500000	70.391899
486.000000	70.517781
484.500000	70.707320
483.000000	70.980690
481.500000	71.252924
480.000000	71.296281
478.500000	71.022646
477.000000	70.770632
475.500000	70.620960
474.000000	70.473148
472.500000	70.329699
471.000000	70.153264
469.500000	69.970848
468.000000	69.756685
466.500000	69.468449
465.000000	69.193034
463.500000	68.969976
462.000000	68.761412
460.500000	68.640619
459.000000	68.524685
457.500000	68.438359
456.000000	68.479309
454.500000	68.435395
453.000000	68.528973
451.500000	68.526397
450.000000	68.587919
448.500000	68.591215
447.000000	68.581235
445.500000	68.643139
444.000000	68.812670
442.500000	69.027628
441.000000	68.904066
439.500000	68.814117
438.000000	68.718652
436.500000	68.664097
435.000000	68.611180
433.500000	68.539201
432.000000	68.447456
430.500000	68.383161
429.000000	68.285548
427.500000	68.254165
426.000000	68.123336
424.500000	68.031830
423.000000	67.939283
421.500000	67.888627
420.000000	67.795985
418.500000	67.699277
417.000000	67.667296
415.500000	67.579856
414.000000	67.378737
412.500000	67.302867
411.000000	67.226116
409.500000	67.040823
408.000000	66.971136
406.500000	66.856242
405.000000	66.721727
403.500000	66.558660
402.000000	66.446007
400.500000	66.301370
399.000000	66.183673
397.500000	65.979629
396.000000	65.921531
394.500000	65.647748
393.000000	65.488674
391.500000	65.322652
390.000000	65.087397
388.500000	64.866506
387.000000	64.616103
385.500000	64.220702
384.000000	64.029966
382.500000	63.733490
381.000000	63.307856
379.500000	62.946560
378.000000	62.629444
376.500000	62.829251
375.000000	62.702140
373.500000	61.576712
372.000000	60.485863
370.500000	58.998932
369.000000	57.475688
367.500000	55.730549
366.000000	53.573703
364.500000	51.182997
363.000000	48.300664
361.500000	44.949871
360.000000	41.265508
358.500000	37.086936
357.000000	32.414525
355.500000	27.404824
354.000000	22.264099
352.500000	17.369671
351.000000	12.824656
349.500000	8.887561
348.000000	5.846170
346.500000	3.585492
345.000000	2.048874
343.500000	1.109150
342.000000	0.546711
340.500000	0.262144
339.000000	0.111952
337.500000	0.055353
336.000000	0.037609
334.500000	0.045172
333.000000	0.040665
331.500000	0.057240
330.000000	0.055918
328.500000	0.067417
327.000000	0.055632
325.500000	0.068210
324.000000	0.061596
322.500000	0.062149
321.000000	0.076272
319.500000	0.069325
318.000000	0.003571
316.500000	-0.023078
315.000000	-0.020549
313.500000	-0.027606
312.000000	-0.019555
310.500000	-0.022951
309.000000	-0.026029
307.500000	-0.011632
306.000000	-0.009093
304.500000	-0.001990
303.000000	-0.006074
301.500000	-0.012821
300.000000	-0.015981
