PE UV       SUBTECH     SPECTRUM    ASCII       PEDS        4.00        
   -1
Sample111.Sample.Raw.asc
20/12/17
15:28:17.00
20/12/17
15:28:17.00
Administrator

300.000000
1
Lambda 850
850L1710193
PerkinElmer UV WinLab 6.4.0.973 / 2.02.06 Lambda 800 UV/VIS, Jan 28 2016 16:58:34

0
0
2
0
0
UV/VIS
1
1
1
RBeamAtt,SBeamAtt,60mm sphere
0
0
0
0
Fix
 
0
0.2
0
0
0
 
 
 
0
 
0
319.2
0
Front
100
 
S:100 R:100
 
0
0
0
 
0
 
 
 
0
 
 
0
0
0
0
0
 
 
 
 
0
0


0
0
#HDR
-1
-1
#GR
nm
%T
1.0
0.0
750.000000
-1.500000
301
8
74.824890
-0.020936
#DATA
750.000000	74.496244
748.500000	74.667613
747.000000	74.614421
745.500000	74.824890
744.000000	74.735961
742.500000	74.705652
741.000000	74.650459
739.500000	74.635149
738.000000	74.607756
736.500000	74.655402
735.000000	74.689292
733.500000	74.693268
732.000000	74.774679
730.500000	74.556591
729.000000	74.652644
727.500000	74.482417
726.000000	74.640269
724.500000	74.613735
723.000000	74.628106
721.500000	74.512089
720.000000	74.415010
718.500000	74.422343
717.000000	74.532617
715.500000	74.502258
714.000000	74.459736
712.500000	74.423196
711.000000	74.444349
709.500000	74.348319
708.000000	74.433631
706.500000	74.478144
705.000000	74.401938
703.500000	74.470790
702.000000	74.431542
700.500000	74.431159
699.000000	74.229500
697.500000	74.306616
696.000000	74.243324
694.500000	74.269243
693.000000	74.259614
691.500000	74.182380
690.000000	74.041171
688.500000	74.196350
687.000000	74.202217
685.500000	74.296506
684.000000	74.269052
682.500000	74.232778
681.000000	74.055314
679.500000	74.101959
678.000000	74.131773
676.500000	74.214202
675.000000	74.186818
673.500000	74.041090
672.000000	74.056437
670.500000	74.084986
669.000000	73.960609
667.500000	73.995597
666.000000	74.017152
664.500000	73.969306
663.000000	74.018410
661.500000	74.019594
660.000000	73.902820
658.500000	73.888185
657.000000	73.995747
655.500000	73.957811
654.000000	73.907934
652.500000	73.926506
651.000000	73.961741
649.500000	73.855077
648.000000	73.775616
646.500000	73.801523
645.000000	73.816747
643.500000	73.771900
642.000000	73.794563
640.500000	73.759578
639.000000	73.702777
637.500000	73.667626
636.000000	73.687092
634.500000	73.694190
633.000000	73.649778
631.500000	73.648401
630.000000	73.654320
628.500000	73.649876
627.000000	73.593540
625.500000	73.592411
624.000000	73.567824
622.500000	73.580142
621.000000	73.533288
619.500000	73.477900
618.000000	73.447128
616.500000	73.426078
615.000000	73.432601
613.500000	73.434168
612.000000	73.354353
610.500000	73.327046
609.000000	73.344258
607.500000	73.327135
606.000000	73.314900
604.500000	73.282050
603.000000	73.248736
601.500000	73.283179
600.000000	73.287452
598.500000	73.240045
597.000000	73.193631
595.500000	73.170343
594.000000	73.139410
592.500000	73.098879
591.000000	73.093918
589.500000	73.071554
588.000000	73.016066
586.500000	72.984621
585.000000	72.960636
583.500000	72.965816
582.000000	72.953833
580.500000	72.950381
579.000000	72.950354
577.500000	72.880734
576.000000	72.858923
574.500000	72.836848
573.000000	72.802652
571.500000	72.819203
570.000000	72.777890
568.500000	72.758690
567.000000	72.746296
565.500000	72.670306
564.000000	72.588632
562.500000	72.631389
561.000000	72.790027
559.500000	72.902339
558.000000	72.905573
556.500000	72.888290
555.000000	72.874895
553.500000	72.856605
552.000000	72.840062
550.500000	72.821089
549.000000	72.800377
547.500000	72.791734
546.000000	72.805876
544.500000	72.787478
543.000000	72.775640
541.500000	72.785114
540.000000	72.755358
538.500000	72.733761
537.000000	72.763650
535.500000	72.785186
534.000000	72.792692
532.500000	72.793808
531.000000	72.780786
529.500000	72.769705
528.000000	72.770319
526.500000	72.745327
525.000000	72.720758
523.500000	72.700128
522.000000	72.646226
520.500000	72.582494
519.000000	72.492760
517.500000	72.386351
516.000000	72.226683
514.500000	72.017790
513.000000	71.817625
511.500000	71.590667
510.000000	71.306815
508.500000	71.078702
507.000000	70.843556
505.500000	70.649358
504.000000	70.504833
502.500000	70.408107
501.000000	70.357529
499.500000	70.330267
498.000000	70.342521
496.500000	70.390331
495.000000	70.499062
493.500000	70.600107
492.000000	70.675884
490.500000	70.798075
489.000000	71.002410
487.500000	71.144538
486.000000	71.279842
484.500000	71.498248
483.000000	71.824319
481.500000	72.210461
480.000000	72.379664
478.500000	72.159605
477.000000	71.956927
475.500000	71.844579
474.000000	71.698102
472.500000	71.592853
471.000000	71.448781
469.500000	71.272586
468.000000	71.049359
466.500000	70.798618
465.000000	70.506570
463.500000	70.266899
462.000000	70.048740
460.500000	69.932466
459.000000	69.800594
457.500000	69.693925
456.000000	69.660091
454.500000	69.605704
453.000000	69.626486
451.500000	69.595830
450.000000	69.607080
448.500000	69.623777
447.000000	69.607843
445.500000	69.642890
444.000000	69.888367
442.500000	70.060785
441.000000	69.892070
439.500000	69.855360
438.000000	69.744617
436.500000	69.649482
435.000000	69.617140
433.500000	69.544888
432.000000	69.499354
430.500000	69.445542
429.000000	69.342702
427.500000	69.222201
426.000000	69.192542
424.500000	69.136697
423.000000	69.052404
421.500000	69.005472
420.000000	68.930688
418.500000	68.769396
417.000000	68.779816
415.500000	68.702111
414.000000	68.572735
412.500000	68.447517
411.000000	68.433496
409.500000	68.234352
408.000000	68.222568
406.500000	68.122661
405.000000	67.947463
403.500000	67.779317
402.000000	67.714074
400.500000	67.565275
399.000000	67.539755
397.500000	67.313636
396.000000	67.242862
394.500000	67.054584
393.000000	66.900406
391.500000	66.806856
390.000000	66.627703
388.500000	66.512302
387.000000	66.192070
385.500000	65.951642
384.000000	65.839537
382.500000	65.570740
381.000000	65.243497
379.500000	65.009844
378.000000	64.944340
376.500000	65.376316
375.000000	65.378825
373.500000	64.443951
372.000000	63.554625
370.500000	62.386131
369.000000	61.468955
367.500000	60.127994
366.000000	58.548450
364.500000	56.816496
363.000000	54.728969
361.500000	52.094268
360.000000	49.218094
358.500000	45.804355
357.000000	42.082235
355.500000	37.664492
354.000000	32.860159
352.500000	27.859929
351.000000	22.675686
349.500000	17.683852
348.000000	13.088985
346.500000	9.075449
345.000000	5.772917
343.500000	3.337046
342.000000	1.701084
340.500000	0.755407
339.000000	0.292612
337.500000	0.118943
336.000000	0.063546
334.500000	0.053596
333.000000	0.061692
331.500000	0.063270
330.000000	0.064542
328.500000	0.059710
327.000000	0.062784
325.500000	0.063650
324.000000	0.059363
322.500000	0.064758
321.000000	0.076365
319.500000	0.061591
318.000000	0.014564
316.500000	-0.010132
315.000000	-0.019048
313.500000	-0.019625
312.000000	-0.016923
310.500000	-0.018342
309.000000	-0.020936
307.500000	-0.007944
306.000000	-0.004357
304.500000	0.000190
303.000000	0.003606
301.500000	-0.006838
300.000000	-0.001522
