PE UV       SUBTECH     SPECTRUM    ASCII       PEDS        4.00        
   -1
Sample114.Sample.Raw.asc
20/12/17
15:38:51.00
20/12/17
15:38:51.00
Administrator

300.000000
1
Lambda 850
850L1710193
PerkinElmer UV WinLab 6.4.0.973 / 2.02.06 Lambda 800 UV/VIS, Jan 28 2016 16:58:34

0
0
2
0
0
UV/VIS
1
1
1
RBeamAtt,SBeamAtt,60mm sphere
0
0
0
0
Fix
 
0
0.2
0
0
0
 
 
 
0
 
0
319.2
0
Front
100
 
S:100 R:100
 
0
0
0
 
0
 
 
 
0
 
 
0
0
0
0
0
 
 
 
 
0
0


0
0
#HDR
-1
-1
#GR
nm
%T
1.0
0.0
750.000000
-1.500000
301
8
73.577854
-0.038310
#DATA
750.000000	73.311834
748.500000	73.490326
747.000000	73.426699
745.500000	73.569007
744.000000	73.577854
742.500000	73.479287
741.000000	73.498159
739.500000	73.384289
738.000000	73.358728
736.500000	73.374733
735.000000	73.409733
733.500000	73.427486
732.000000	73.520078
730.500000	73.498837
729.000000	73.323474
727.500000	73.250585
726.000000	73.297788
724.500000	73.360528
723.000000	73.434438
721.500000	73.355216
720.000000	73.284751
718.500000	73.295890
717.000000	73.376690
715.500000	73.237961
714.000000	73.212762
712.500000	73.235258
711.000000	73.325800
709.500000	73.299005
708.000000	73.321139
706.500000	73.270735
705.000000	73.230720
703.500000	73.279771
702.000000	73.203770
700.500000	73.216195
699.000000	73.007284
697.500000	73.210707
696.000000	73.076590
694.500000	73.086875
693.000000	73.061295
691.500000	73.006729
690.000000	72.894805
688.500000	73.087175
687.000000	73.015286
685.500000	73.084516
684.000000	73.049974
682.500000	73.013557
681.000000	72.893693
679.500000	72.933221
678.000000	72.961162
676.500000	72.936220
675.000000	73.020947
673.500000	72.875309
672.000000	72.855711
670.500000	72.835732
669.000000	72.781812
667.500000	72.845048
666.000000	72.848391
664.500000	72.770939
663.000000	72.788790
661.500000	72.800505
660.000000	72.750896
658.500000	72.731080
657.000000	72.703796
655.500000	72.692029
654.000000	72.665999
652.500000	72.713505
651.000000	72.732058
649.500000	72.721934
648.000000	72.616692
646.500000	72.618795
645.000000	72.618704
643.500000	72.598214
642.000000	72.530493
640.500000	72.517057
639.000000	72.513475
637.500000	72.487163
636.000000	72.520502
634.500000	72.518296
633.000000	72.484027
631.500000	72.418675
630.000000	72.407947
628.500000	72.393687
627.000000	72.385436
625.500000	72.346002
624.000000	72.384790
622.500000	72.344422
621.000000	72.299629
619.500000	72.305469
618.000000	72.281222
616.500000	72.234768
615.000000	72.207605
613.500000	72.191415
612.000000	72.161514
610.500000	72.129950
609.000000	72.126249
607.500000	72.122528
606.000000	72.059158
604.500000	72.053883
603.000000	72.078310
601.500000	72.047261
600.000000	72.035411
598.500000	72.010926
597.000000	71.934892
595.500000	71.884557
594.000000	71.897215
592.500000	71.870606
591.000000	71.854254
589.500000	71.885136
588.000000	71.818863
586.500000	71.758490
585.000000	71.730558
583.500000	71.733302
582.000000	71.697929
580.500000	71.676210
579.000000	71.686399
577.500000	71.637739
576.000000	71.626527
574.500000	71.591744
573.000000	71.541781
571.500000	71.529946
570.000000	71.504259
568.500000	71.452885
567.000000	71.414208
565.500000	71.376967
564.000000	71.321442
562.500000	71.340753
561.000000	71.479983
559.500000	71.573685
558.000000	71.542330
556.500000	71.527923
555.000000	71.482075
553.500000	71.428170
552.000000	71.416283
550.500000	71.395477
549.000000	71.363692
547.500000	71.333631
546.000000	71.349815
544.500000	71.360077
543.000000	71.306310
541.500000	71.267757
540.000000	71.231961
538.500000	71.199751
537.000000	71.216016
535.500000	71.208261
534.000000	71.177421
532.500000	71.147338
531.000000	71.143826
529.500000	71.122663
528.000000	71.089892
526.500000	71.057382
525.000000	71.014237
523.500000	70.976364
522.000000	70.925802
520.500000	70.859670
519.000000	70.737870
517.500000	70.590781
516.000000	70.438296
514.500000	70.245142
513.000000	70.032768
511.500000	69.785884
510.000000	69.543846
508.500000	69.339214
507.000000	69.127087
505.500000	68.934990
504.000000	68.814844
502.500000	68.757821
501.000000	68.758201
499.500000	68.752846
498.000000	68.811023
496.500000	68.916806
495.000000	69.057483
493.500000	69.212433
492.000000	69.321877
490.500000	69.480167
489.000000	69.636965
487.500000	69.739330
486.000000	69.850592
484.500000	70.037034
483.000000	70.323450
481.500000	70.613480
480.000000	70.647154
478.500000	70.409640
477.000000	70.157363
475.500000	70.020047
474.000000	69.857708
472.500000	69.722954
471.000000	69.553162
469.500000	69.342340
468.000000	69.107179
466.500000	68.833078
465.000000	68.561914
463.500000	68.302417
462.000000	68.096577
460.500000	67.985668
459.000000	67.883070
457.500000	67.804837
456.000000	67.816206
454.500000	67.780635
453.000000	67.835057
451.500000	67.851405
450.000000	67.857384
448.500000	67.904371
447.000000	67.866688
445.500000	67.942151
444.000000	68.107632
442.500000	68.329257
441.000000	68.160588
439.500000	68.024620
438.000000	67.957661
436.500000	67.904538
435.000000	67.861671
433.500000	67.708683
432.000000	67.617702
430.500000	67.638711
429.000000	67.505861
427.500000	67.444617
426.000000	67.370532
424.500000	67.262675
423.000000	67.123096
421.500000	67.111466
420.000000	66.986039
418.500000	66.883319
417.000000	66.847620
415.500000	66.699144
414.000000	66.578348
412.500000	66.479849
411.000000	66.418778
409.500000	66.222165
408.000000	66.164824
406.500000	66.040603
405.000000	65.870710
403.500000	65.758310
402.000000	65.636093
400.500000	65.478385
399.000000	65.378938
397.500000	65.167003
396.000000	65.025870
394.500000	64.791828
393.000000	64.558321
391.500000	64.405217
390.000000	64.181271
388.500000	63.992742
387.000000	63.712133
385.500000	63.379034
384.000000	63.154319
382.500000	62.832133
381.000000	62.407155
379.500000	62.007101
378.000000	61.642955
376.500000	61.886197
375.000000	61.740023
373.500000	60.550493
372.000000	59.357309
370.500000	57.963715
369.000000	56.532279
367.500000	54.828682
366.000000	52.712384
364.500000	50.349448
363.000000	47.447824
361.500000	44.270440
360.000000	40.443801
358.500000	36.260168
357.000000	31.734520
355.500000	26.794704
354.000000	21.781172
352.500000	16.937164
351.000000	12.417688
349.500000	8.608693
348.000000	5.645124
346.500000	3.455799
345.000000	1.978337
343.500000	1.053051
342.000000	0.537291
340.500000	0.244600
339.000000	0.112693
337.500000	0.056093
336.000000	0.031773
334.500000	0.030454
333.000000	0.030290
331.500000	0.033212
330.000000	0.032920
328.500000	0.034544
327.000000	0.025262
325.500000	0.042247
324.000000	0.042708
322.500000	0.047613
321.000000	0.037110
319.500000	0.032147
318.000000	0.005168
316.500000	-0.028801
315.000000	-0.033498
313.500000	-0.038310
312.000000	-0.031307
310.500000	-0.029535
309.000000	-0.023577
307.500000	-0.017401
306.000000	-0.012123
304.500000	-0.010993
303.000000	-0.011483
301.500000	-0.019089
300.000000	-0.020832
