PE UV       SUBTECH     SPECTRUM    ASCII       PEDS        4.00        
   -1
Sample46.Sample.Raw.asc
20/12/15
15:25:50.00
20/12/15
15:25:50.00
Administrator

300.000000
1
Lambda 850
850L1710193
PerkinElmer UV WinLab 6.4.0.973 / 2.02.06 Lambda 800 UV/VIS, Jan 28 2016 16:58:34

0
0
2
0
0
UV/VIS
1
1
1
RBeamAtt,SBeamAtt,60mm sphere
0
0
0
0
Fix
 
0
0.2
0
0
0
 
 
 
0
 
0
319.2
0
Front
100
 
S:100 R:100
 
0
0
0
 
0
 
 
 
0
 
 
0
0
0
0
0
 
 
 
 
0
0


0
0
#HDR
-1
-1
#GR
nm
%T
1.0
0.0
750.000000
-1.500000
301
8
75.620963
-0.025073
#DATA
750.000000	75.084565
748.500000	75.586756
747.000000	75.421533
745.500000	75.557472
744.000000	75.587691
742.500000	75.531204
741.000000	75.620963
739.500000	75.474459
738.000000	75.564610
736.500000	75.532820
735.000000	75.498783
733.500000	75.527682
732.000000	75.488546
730.500000	75.407014
729.000000	75.360759
727.500000	75.310915
726.000000	75.361302
724.500000	75.449508
723.000000	75.318312
721.500000	75.287000
720.000000	75.223603
718.500000	75.290002
717.000000	75.340148
715.500000	75.234280
714.000000	75.252557
712.500000	75.173494
711.000000	75.355319
709.500000	75.163389
708.000000	75.163588
706.500000	75.217833
705.000000	75.188173
703.500000	75.229573
702.000000	75.139068
700.500000	75.151471
699.000000	75.189181
697.500000	75.095366
696.000000	75.150444
694.500000	75.088284
693.000000	75.007468
691.500000	75.024381
690.000000	74.915466
688.500000	75.153836
687.000000	75.051988
685.500000	75.088375
684.000000	75.075180
682.500000	75.064126
681.000000	75.063033
679.500000	75.080306
678.000000	74.999058
676.500000	74.987075
675.000000	74.961675
673.500000	74.927161
672.000000	74.953939
670.500000	74.986341
669.000000	74.919578
667.500000	74.965309
666.000000	74.905615
664.500000	74.880915
663.000000	74.939285
661.500000	74.930768
660.000000	74.849641
658.500000	74.794335
657.000000	74.839218
655.500000	74.869506
654.000000	74.827954
652.500000	74.800128
651.000000	74.813606
649.500000	74.805189
648.000000	74.805749
646.500000	74.784305
645.000000	74.683683
643.500000	74.710065
642.000000	74.746144
640.500000	74.621490
639.000000	74.639073
637.500000	74.648911
636.000000	74.608820
634.500000	74.628850
633.000000	74.642819
631.500000	74.627783
630.000000	74.544688
628.500000	74.530756
627.000000	74.543176
625.500000	74.564560
624.000000	74.567859
622.500000	74.535353
621.000000	74.538130
619.500000	74.536341
618.000000	74.491038
616.500000	74.441131
615.000000	74.424552
613.500000	74.411814
612.000000	74.394930
610.500000	74.422055
609.000000	74.367178
607.500000	74.323943
606.000000	74.306093
604.500000	74.256050
603.000000	74.251863
601.500000	74.282012
600.000000	74.283871
598.500000	74.279269
597.000000	74.276848
595.500000	74.233590
594.000000	74.237515
592.500000	74.228905
591.000000	74.195379
589.500000	74.201299
588.000000	74.130440
586.500000	74.104547
585.000000	74.131651
583.500000	74.080936
582.000000	74.058735
580.500000	74.068897
579.000000	74.071522
577.500000	74.066946
576.000000	74.027843
574.500000	74.004585
573.000000	74.024590
571.500000	74.017582
570.000000	73.932302
568.500000	73.882948
567.000000	73.878371
565.500000	73.852486
564.000000	73.787131
562.500000	73.786733
561.000000	73.919609
559.500000	74.010254
558.000000	73.981424
556.500000	74.006887
555.000000	74.040381
553.500000	74.028602
552.000000	74.024707
550.500000	74.016099
549.000000	73.993302
547.500000	73.980845
546.000000	74.023827
544.500000	74.019923
543.000000	74.005687
541.500000	74.011204
540.000000	73.996059
538.500000	73.995449
537.000000	73.983736
535.500000	74.006541
534.000000	74.027606
532.500000	74.024747
531.000000	74.010857
529.500000	74.014707
528.000000	74.017306
526.500000	73.990649
525.000000	73.970180
523.500000	73.971424
522.000000	73.920167
520.500000	73.833580
519.000000	73.745844
517.500000	73.631128
516.000000	73.473565
514.500000	73.293986
513.000000	73.062050
511.500000	72.816602
510.000000	72.570699
508.500000	72.319103
507.000000	72.063404
505.500000	71.874066
504.000000	71.713564
502.500000	71.596866
501.000000	71.565924
499.500000	71.592780
498.000000	71.618725
496.500000	71.636683
495.000000	71.748064
493.500000	71.816506
492.000000	71.936493
490.500000	72.026434
489.000000	72.154042
487.500000	72.324524
486.000000	72.484484
484.500000	72.737441
483.000000	73.091449
481.500000	73.497763
480.000000	73.608289
478.500000	73.448206
477.000000	73.202352
475.500000	73.080242
474.000000	73.015469
472.500000	72.914817
471.000000	72.747033
469.500000	72.572763
468.000000	72.302721
466.500000	72.068333
465.000000	71.832804
463.500000	71.556010
462.000000	71.302925
460.500000	71.164888
459.000000	71.060099
457.500000	70.957338
456.000000	70.892782
454.500000	70.884377
453.000000	70.827483
451.500000	70.802578
450.000000	70.847394
448.500000	70.855776
447.000000	70.799848
445.500000	70.786630
444.000000	71.123318
442.500000	71.240032
441.000000	71.194181
439.500000	71.067148
438.000000	70.974316
436.500000	70.966999
435.000000	70.844515
433.500000	70.852676
432.000000	70.768863
430.500000	70.747984
429.000000	70.607163
427.500000	70.611953
426.000000	70.535504
424.500000	70.540429
423.000000	70.411974
421.500000	70.295594
420.000000	70.287284
418.500000	70.199337
417.000000	70.126537
415.500000	69.997438
414.000000	69.952732
412.500000	69.852628
411.000000	69.843271
409.500000	69.701830
408.000000	69.643084
406.500000	69.550795
405.000000	69.422123
403.500000	69.320452
402.000000	69.235244
400.500000	69.110250
399.000000	68.965056
397.500000	68.962240
396.000000	68.801514
394.500000	68.736154
393.000000	68.698941
391.500000	68.451725
390.000000	68.315880
388.500000	68.223418
387.000000	68.037033
385.500000	67.870625
384.000000	67.624251
382.500000	67.328128
381.000000	67.079338
379.500000	66.797981
378.000000	66.748062
376.500000	67.453928
375.000000	67.423910
373.500000	66.419441
372.000000	65.549970
370.500000	64.496879
369.000000	63.333339
367.500000	61.818319
366.000000	60.275641
364.500000	58.294949
363.000000	56.045599
361.500000	53.161795
360.000000	49.955045
358.500000	46.369063
357.000000	41.995808
355.500000	37.169679
354.000000	31.936790
352.500000	26.606633
351.000000	21.146445
349.500000	15.946657
348.000000	11.391685
346.500000	7.510069
345.000000	4.524457
343.500000	2.430484
342.000000	1.141741
340.500000	0.474432
339.000000	0.189033
337.500000	0.073098
336.000000	0.050009
334.500000	0.045661
333.000000	0.064808
331.500000	0.037500
330.000000	0.036055
328.500000	0.054145
327.000000	0.047358
325.500000	0.039713
324.000000	0.024926
322.500000	0.034326
321.000000	0.051253
319.500000	0.041339
318.000000	0.004045
316.500000	-0.025073
315.000000	-0.019819
313.500000	-0.021156
312.000000	-0.020516
310.500000	-0.023729
309.000000	-0.016978
307.500000	-0.009643
306.000000	0.000095
304.500000	-0.000190
303.000000	-0.003138
301.500000	-0.004185
300.000000	-0.002378
