PE UV       SUBTECH     SPECTRUM    ASCII       PEDS        4.00        
   -1
Sample43.Sample.Raw.asc
20/12/15
15:16:24.00
20/12/15
15:16:24.00
Administrator

300.000000
1
Lambda 850
850L1710193
PerkinElmer UV WinLab 6.4.0.973 / 2.02.06 Lambda 800 UV/VIS, Jan 28 2016 16:58:34

0
0
2
0
0
UV/VIS
1
1
1
RBeamAtt,SBeamAtt,60mm sphere
0
0
0
0
Fix
 
0
0.2
0
0
0
 
 
 
0
 
0
319.2
0
Front
100
 
S:100 R:100
 
0
0
0
 
0
 
 
 
0
 
 
0
0
0
0
0
 
 
 
 
0
0


0
0
#HDR
-1
-1
#GR
nm
%T
1.0
0.0
750.000000
-1.500000
301
8
74.584691
-0.026012
#DATA
750.000000	73.792778
748.500000	74.300487
747.000000	74.327450
745.500000	74.409995
744.000000	74.584691
742.500000	74.386749
741.000000	74.296974
739.500000	74.202666
738.000000	74.351136
736.500000	74.327219
735.000000	74.231729
733.500000	74.200348
732.000000	74.232655
730.500000	74.222384
729.000000	74.223611
727.500000	74.175801
726.000000	74.097555
724.500000	74.331578
723.000000	74.063155
721.500000	74.071256
720.000000	74.128663
718.500000	74.132026
717.000000	74.160588
715.500000	74.075275
714.000000	74.143479
712.500000	73.998853
711.000000	74.170406
709.500000	73.980379
708.000000	73.992268
706.500000	74.016400
705.000000	74.050328
703.500000	74.029459
702.000000	73.974827
700.500000	73.904075
699.000000	74.002621
697.500000	73.927246
696.000000	73.977260
694.500000	73.834717
693.000000	73.855413
691.500000	73.870258
690.000000	73.769464
688.500000	73.992118
687.000000	73.912425
685.500000	73.955831
684.000000	73.928389
682.500000	73.847898
681.000000	73.936756
679.500000	73.829905
678.000000	73.834389
676.500000	73.775052
675.000000	73.746030
673.500000	73.755993
672.000000	73.782147
670.500000	73.831092
669.000000	73.801345
667.500000	73.827682
666.000000	73.711293
664.500000	73.737501
663.000000	73.805506
661.500000	73.720525
660.000000	73.659578
658.500000	73.630870
657.000000	73.603221
655.500000	73.628483
654.000000	73.611636
652.500000	73.578014
651.000000	73.639998
649.500000	73.594299
648.000000	73.563183
646.500000	73.575806
645.000000	73.490931
643.500000	73.551395
642.000000	73.549725
640.500000	73.493631
639.000000	73.473553
637.500000	73.469712
636.000000	73.444725
634.500000	73.449072
633.000000	73.457387
631.500000	73.453686
630.000000	73.417915
628.500000	73.428728
627.000000	73.424359
625.500000	73.396330
624.000000	73.378550
622.500000	73.330416
621.000000	73.304060
619.500000	73.325121
618.000000	73.264090
616.500000	73.234376
615.000000	73.253705
613.500000	73.236348
612.000000	73.226799
610.500000	73.206948
609.000000	73.203936
607.500000	73.171514
606.000000	73.137195
604.500000	73.079329
603.000000	73.062939
601.500000	73.064832
600.000000	73.049610
598.500000	73.062731
597.000000	73.095109
595.500000	73.023424
594.000000	72.967064
592.500000	72.983318
591.000000	72.973207
589.500000	72.948791
588.000000	72.909368
586.500000	72.868535
585.000000	72.880866
583.500000	72.875406
582.000000	72.838400
580.500000	72.775911
579.000000	72.759259
577.500000	72.750859
576.000000	72.722502
574.500000	72.727318
573.000000	72.740855
571.500000	72.706013
570.000000	72.649752
568.500000	72.591360
567.000000	72.531311
565.500000	72.496526
564.000000	72.446004
562.500000	72.447753
561.000000	72.568549
559.500000	72.682202
558.000000	72.677165
556.500000	72.623446
555.000000	72.606163
553.500000	72.598023
552.000000	72.603111
550.500000	72.577998
549.000000	72.507952
547.500000	72.484701
546.000000	72.506735
544.500000	72.492110
543.000000	72.448463
541.500000	72.424624
540.000000	72.415501
538.500000	72.407267
537.000000	72.391486
535.500000	72.383007
534.000000	72.376443
532.500000	72.366385
531.000000	72.342140
529.500000	72.305550
528.000000	72.268139
526.500000	72.249297
525.000000	72.239405
523.500000	72.167241
522.000000	72.098073
520.500000	72.029378
519.000000	71.903423
517.500000	71.772099
516.000000	71.612122
514.500000	71.431026
513.000000	71.208054
511.500000	70.962595
510.000000	70.700688
508.500000	70.467767
507.000000	70.261887
505.500000	70.100094
504.000000	69.968529
502.500000	69.901552
501.000000	69.917670
499.500000	70.006151
498.000000	70.094637
496.500000	70.176426
495.000000	70.315640
493.500000	70.455711
492.000000	70.612668
490.500000	70.690137
489.000000	70.849453
487.500000	71.007745
486.000000	71.113613
484.500000	71.312270
483.000000	71.574996
481.500000	71.930705
480.000000	71.951936
478.500000	71.714427
477.000000	71.441442
475.500000	71.243067
474.000000	71.114008
472.500000	70.979517
471.000000	70.782715
469.500000	70.572805
468.000000	70.307553
466.500000	70.094801
465.000000	69.823063
463.500000	69.563575
462.000000	69.346338
460.500000	69.237162
459.000000	69.169120
457.500000	69.076846
456.000000	69.040314
454.500000	69.098118
453.000000	69.048250
451.500000	69.073280
450.000000	69.113739
448.500000	69.173944
447.000000	69.188460
445.500000	69.222863
444.000000	69.490797
442.500000	69.609069
441.000000	69.550845
439.500000	69.407427
438.000000	69.345922
436.500000	69.308715
435.000000	69.250695
433.500000	69.129159
432.000000	69.069034
430.500000	69.060067
429.000000	68.973651
427.500000	68.895622
426.000000	68.813406
424.500000	68.790557
423.000000	68.666966
421.500000	68.498407
420.000000	68.437783
418.500000	68.361810
417.000000	68.261845
415.500000	68.145410
414.000000	68.133278
412.500000	67.942617
411.000000	67.894556
409.500000	67.756746
408.000000	67.669122
406.500000	67.606223
405.000000	67.488093
403.500000	67.344000
402.000000	67.225208
400.500000	67.049706
399.000000	66.947071
397.500000	66.850836
396.000000	66.644566
394.500000	66.535730
393.000000	66.423620
391.500000	66.268464
390.000000	66.045598
388.500000	65.788183
387.000000	65.638772
385.500000	65.409517
384.000000	65.121667
382.500000	64.733240
381.000000	64.290328
379.500000	64.012874
378.000000	63.691293
376.500000	64.072767
375.000000	63.920926
373.500000	62.778117
372.000000	61.519752
370.500000	60.196851
369.000000	58.572922
367.500000	56.735093
366.000000	54.505155
364.500000	51.928809
363.000000	48.943553
361.500000	45.215615
360.000000	41.201182
358.500000	36.576880
357.000000	31.545816
355.500000	26.199672
354.000000	20.783265
352.500000	15.731469
351.000000	11.229404
349.500000	7.506449
348.000000	4.680521
346.500000	2.738573
345.000000	1.491190
343.500000	0.773731
342.000000	0.370439
340.500000	0.172831
339.000000	0.091229
337.500000	0.062444
336.000000	0.051861
334.500000	0.053921
333.000000	0.061012
331.500000	0.057735
330.000000	0.053387
328.500000	0.058696
327.000000	0.059615
325.500000	0.048548
324.000000	0.061757
322.500000	0.054977
321.000000	0.049949
319.500000	0.039659
318.000000	0.005832
316.500000	-0.026012
315.000000	-0.018504
313.500000	-0.018899
312.000000	-0.022210
310.500000	-0.014878
309.000000	-0.015186
307.500000	-0.005200
306.000000	-0.001232
304.500000	0.000095
303.000000	-0.008654
301.500000	-0.005707
300.000000	-0.001617
