PE UV       SUBTECH     SPECTRUM    ASCII       PEDS        4.00        
   -1
Sample229.Sample.Raw.asc
21/02/05
14:34:23.00
21/02/05
14:34:23.00
Administrator

300.000000
1
Lambda 850
850L1710193
PerkinElmer UV WinLab 6.4.0.973 / 2.02.06 Lambda 800 UV/VIS, Jan 28 2016 16:58:34

0
0
2
0
0
UV/VIS
1
1
1
RBeamAtt,SBeamAtt,60mm sphere
0
0
0
0
Fix
 
0
0.2
0
0
0
 
 
 
0
 
0
340
0
Front
100
 
S:100 R:100
 
0
0
0
 
0
 
 
 
0
 
 
0
0
0
0
0
 
 
 
 
0
0


0
0
#HDR
-1
-1
#GR
nm
%T
1.0
0.0
750.000000
-1.500000
301
8
74.201445
-0.059231
#DATA
750.000000	74.002121
748.500000	74.193660
747.000000	74.201445
745.500000	74.010460
744.000000	74.010846
742.500000	74.184028
741.000000	74.039173
739.500000	74.140330
738.000000	73.954145
736.500000	74.134651
735.000000	73.938840
733.500000	73.975777
732.000000	74.068637
730.500000	73.980832
729.000000	73.962637
727.500000	73.905277
726.000000	73.933461
724.500000	73.890892
723.000000	73.992491
721.500000	73.782294
720.000000	73.888065
718.500000	73.857330
717.000000	73.987518
715.500000	73.903074
714.000000	73.947308
712.500000	73.894552
711.000000	73.861895
709.500000	73.761416
708.000000	73.770800
706.500000	73.865516
705.000000	73.924505
703.500000	73.764374
702.000000	73.926280
700.500000	73.721662
699.000000	73.816476
697.500000	73.777293
696.000000	73.687821
694.500000	73.664776
693.000000	73.621094
691.500000	73.718076
690.000000	73.450050
688.500000	73.678255
687.000000	73.664518
685.500000	73.643019
684.000000	73.623864
682.500000	73.675176
681.000000	73.546726
679.500000	73.616123
678.000000	73.586233
676.500000	73.558310
675.000000	73.560834
673.500000	73.543990
672.000000	73.516279
670.500000	73.442163
669.000000	73.491483
667.500000	73.507199
666.000000	73.496592
664.500000	73.470854
663.000000	73.474143
661.500000	73.459694
660.000000	73.432101
658.500000	73.409626
657.000000	73.424780
655.500000	73.426138
654.000000	73.385235
652.500000	73.348039
651.000000	73.291058
649.500000	73.321089
648.000000	73.333745
646.500000	73.327242
645.000000	73.276313
643.500000	73.251207
642.000000	73.269706
640.500000	73.219903
639.000000	73.237050
637.500000	73.207040
636.000000	73.155457
634.500000	73.144586
633.000000	73.142921
631.500000	73.160605
630.000000	73.150910
628.500000	73.102409
627.000000	73.053185
625.500000	73.057475
624.000000	73.070370
622.500000	73.011378
621.000000	73.011705
619.500000	72.989469
618.000000	72.972527
616.500000	72.935756
615.000000	72.887204
613.500000	72.894341
612.000000	72.882842
610.500000	72.898052
609.000000	72.855754
607.500000	72.767554
606.000000	72.786063
604.500000	72.806960
603.000000	72.755337
601.500000	72.708841
600.000000	72.716746
598.500000	72.730004
597.000000	72.728706
595.500000	72.660186
594.000000	72.645552
592.500000	72.601853
591.000000	72.597884
589.500000	72.592117
588.000000	72.584307
586.500000	72.518788
585.000000	72.518083
583.500000	72.507727
582.000000	72.485293
580.500000	72.456618
579.000000	72.390499
577.500000	72.369271
576.000000	72.338375
574.500000	72.308384
573.000000	72.296548
571.500000	72.281920
570.000000	72.231005
568.500000	72.177339
567.000000	72.147130
565.500000	72.113550
564.000000	72.041010
562.500000	72.009550
561.000000	72.142690
559.500000	72.267835
558.000000	72.236258
556.500000	72.229858
555.000000	72.224181
553.500000	72.162422
552.000000	72.132542
550.500000	72.110459
549.000000	72.095388
547.500000	72.102326
546.000000	72.088079
544.500000	72.036814
543.000000	71.999340
541.500000	71.975976
540.000000	71.965985
538.500000	71.968191
537.000000	71.957870
535.500000	71.942533
534.000000	71.960260
532.500000	71.949432
531.000000	71.899059
529.500000	71.873932
528.000000	71.851827
526.500000	71.810083
525.000000	71.743850
523.500000	71.678835
522.000000	71.627058
520.500000	71.544889
519.000000	71.447879
517.500000	71.330744
516.000000	71.170258
514.500000	70.961885
513.000000	70.737744
511.500000	70.521809
510.000000	70.289067
508.500000	70.040228
507.000000	69.845463
505.500000	69.684009
504.000000	69.562995
502.500000	69.494540
501.000000	69.461280
499.500000	69.503477
498.000000	69.557877
496.500000	69.671947
495.000000	69.823897
493.500000	69.970453
492.000000	70.096269
490.500000	70.228073
489.000000	70.351744
487.500000	70.494187
486.000000	70.639254
484.500000	70.797080
483.000000	71.063822
481.500000	71.363504
480.000000	71.417350
478.500000	71.099703
477.000000	70.856274
475.500000	70.709913
474.000000	70.586831
472.500000	70.438343
471.000000	70.263411
469.500000	70.058381
468.000000	69.798253
466.500000	69.525801
465.000000	69.245786
463.500000	69.053958
462.000000	68.840565
460.500000	68.704201
459.000000	68.633080
457.500000	68.530135
456.000000	68.558574
454.500000	68.554841
453.000000	68.584162
451.500000	68.630093
450.000000	68.626424
448.500000	68.653274
447.000000	68.680683
445.500000	68.712223
444.000000	68.957552
442.500000	69.077774
441.000000	68.992990
439.500000	68.890335
438.000000	68.805504
436.500000	68.743005
435.000000	68.588434
433.500000	68.622555
432.000000	68.550198
430.500000	68.488695
429.000000	68.372335
427.500000	68.293712
426.000000	68.213815
424.500000	68.174625
423.000000	67.996900
421.500000	67.926252
420.000000	67.842651
418.500000	67.748837
417.000000	67.656009
415.500000	67.582345
414.000000	67.424519
412.500000	67.395264
411.000000	67.286611
409.500000	67.172784
408.000000	67.082835
406.500000	66.991023
405.000000	66.875663
403.500000	66.752302
402.000000	66.616799
400.500000	66.499164
399.000000	66.323320
397.500000	66.219040
396.000000	66.010722
394.500000	65.831399
393.000000	65.675534
391.500000	65.654109
390.000000	65.449199
388.500000	65.200306
387.000000	64.919848
385.500000	64.743803
384.000000	64.473714
382.500000	64.287260
381.000000	63.888063
379.500000	63.421948
378.000000	63.243186
376.500000	63.797549
375.000000	63.436225
373.500000	62.524881
372.000000	61.547177
370.500000	60.085859
369.000000	58.673343
367.500000	57.089413
366.000000	55.251514
364.500000	52.862749
363.000000	49.972532
361.500000	46.793121
360.000000	43.000811
358.500000	38.809665
357.000000	33.914747
355.500000	28.779528
354.000000	23.468385
352.500000	18.305851
351.000000	13.429117
349.500000	9.347634
348.000000	6.069402
346.500000	3.671456
345.000000	2.087989
343.500000	1.113439
342.000000	0.537823
340.500000	0.230903
339.000000	0.046423
337.500000	-0.029385
336.000000	-0.059231
334.500000	-0.040853
333.000000	-0.028350
331.500000	-0.043177
330.000000	-0.046728
328.500000	-0.044793
327.000000	-0.037164
325.500000	-0.030323
324.000000	-0.031243
322.500000	-0.029121
321.000000	-0.026779
319.500000	-0.024872
318.000000	0.015352
316.500000	-0.026957
315.000000	-0.027177
313.500000	-0.021921
312.000000	-0.023708
310.500000	-0.019972
309.000000	-0.018662
307.500000	-0.014838
306.000000	-0.005400
304.500000	0.002848
303.000000	-0.002280
301.500000	-0.006180
300.000000	-0.008461
