PE UV       SUBTECH     SPECTRUM    ASCII       PEDS        4.00        
   -1
Sample60.Sample.Raw.asc
20/12/15
16:28:30.00
20/12/15
16:28:30.00
Administrator

300.000000
1
Lambda 850
850L1710193
PerkinElmer UV WinLab 6.4.0.973 / 2.02.06 Lambda 800 UV/VIS, Jan 28 2016 16:58:34

0
0
2
0
0
UV/VIS
1
1
1
RBeamAtt,SBeamAtt,60mm sphere
0
0
0
0
Fix
 
0
0.2
0
0
0
 
 
 
0
 
0
319.2
0
Front
100
 
S:100 R:100
 
0
0
0
 
0
 
 
 
0
 
 
0
0
0
0
0
 
 
 
 
0
0


0
0
#HDR
-1
-1
#GR
nm
%T
1.0
0.0
750.000000
-1.500000
301
8
75.565132
-0.040678
#DATA
750.000000	75.006943
748.500000	75.455139
747.000000	75.403949
745.500000	75.431616
744.000000	75.565132
742.500000	75.524983
741.000000	75.334147
739.500000	75.393216
738.000000	75.476308
736.500000	75.367133
735.000000	75.375494
733.500000	75.383701
732.000000	75.346474
730.500000	75.278306
729.000000	75.279708
727.500000	75.254617
726.000000	75.221436
724.500000	75.495248
723.000000	75.176903
721.500000	75.055209
720.000000	75.162228
718.500000	75.225304
717.000000	75.154809
715.500000	75.241188
714.000000	75.205206
712.500000	75.056802
711.000000	75.221733
709.500000	75.132221
708.000000	75.092330
706.500000	75.154681
705.000000	75.123179
703.500000	75.049600
702.000000	75.034288
700.500000	75.060723
699.000000	75.095785
697.500000	74.900802
696.000000	75.031248
694.500000	74.970191
693.000000	74.820887
691.500000	74.925550
690.000000	74.814483
688.500000	74.886786
687.000000	74.921507
685.500000	74.970896
684.000000	75.020161
682.500000	74.882838
681.000000	74.942088
679.500000	74.934444
678.000000	74.878388
676.500000	74.890723
675.000000	74.869123
673.500000	74.796639
672.000000	74.786341
670.500000	74.823087
669.000000	74.814564
667.500000	74.860209
666.000000	74.793363
664.500000	74.752556
663.000000	74.798713
661.500000	74.773531
660.000000	74.699795
658.500000	74.661166
657.000000	74.646797
655.500000	74.647294
654.000000	74.656894
652.500000	74.637535
651.000000	74.651584
649.500000	74.605361
648.000000	74.592500
646.500000	74.552180
645.000000	74.545719
643.500000	74.553931
642.000000	74.543915
640.500000	74.502690
639.000000	74.511006
637.500000	74.453050
636.000000	74.403160
634.500000	74.432851
633.000000	74.476506
631.500000	74.430782
630.000000	74.397872
628.500000	74.411046
627.000000	74.367046
625.500000	74.366656
624.000000	74.395803
622.500000	74.365327
621.000000	74.333743
619.500000	74.318900
618.000000	74.272738
616.500000	74.248509
615.000000	74.268478
613.500000	74.266344
612.000000	74.223272
610.500000	74.224280
609.000000	74.172933
607.500000	74.089302
606.000000	74.103871
604.500000	74.068955
603.000000	74.088541
601.500000	74.101942
600.000000	74.089422
598.500000	74.088999
597.000000	74.091886
595.500000	74.049651
594.000000	74.046460
592.500000	74.018955
591.000000	73.973631
589.500000	73.990402
588.000000	73.948517
586.500000	73.904815
585.000000	73.914673
583.500000	73.911511
582.000000	73.900139
580.500000	73.835384
579.000000	73.836597
577.500000	73.871365
576.000000	73.836238
574.500000	73.796218
573.000000	73.810964
571.500000	73.792975
570.000000	73.721721
568.500000	73.682052
567.000000	73.646754
565.500000	73.595480
564.000000	73.543560
562.500000	73.559132
561.000000	73.721829
559.500000	73.844113
558.000000	73.826336
556.500000	73.783701
555.000000	73.766199
553.500000	73.789374
552.000000	73.809543
550.500000	73.797482
549.000000	73.751810
547.500000	73.760084
546.000000	73.791648
544.500000	73.800366
543.000000	73.764336
541.500000	73.744807
540.000000	73.758958
538.500000	73.778612
537.000000	73.774677
535.500000	73.757160
534.000000	73.766167
532.500000	73.783487
531.000000	73.770005
529.500000	73.766155
528.000000	73.776281
526.500000	73.784702
525.000000	73.758312
523.500000	73.706771
522.000000	73.674557
520.500000	73.612526
519.000000	73.507044
517.500000	73.404139
516.000000	73.254577
514.500000	73.058566
513.000000	72.840707
511.500000	72.595617
510.000000	72.307494
508.500000	72.058164
507.000000	71.834366
505.500000	71.622965
504.000000	71.445821
502.500000	71.339312
501.000000	71.291738
499.500000	71.339806
498.000000	71.353321
496.500000	71.346005
495.000000	71.433244
493.500000	71.512643
492.000000	71.671396
490.500000	71.764537
489.000000	71.905901
487.500000	72.078917
486.000000	72.211890
484.500000	72.461602
483.000000	72.778137
481.500000	73.255103
480.000000	73.394285
478.500000	73.191690
477.000000	72.989857
475.500000	72.837544
474.000000	72.754620
472.500000	72.644342
471.000000	72.486025
469.500000	72.302693
468.000000	72.033548
466.500000	71.824204
465.000000	71.553289
463.500000	71.285393
462.000000	71.046593
460.500000	70.898102
459.000000	70.805097
457.500000	70.699342
456.000000	70.622071
454.500000	70.637870
453.000000	70.579814
451.500000	70.572011
450.000000	70.557979
448.500000	70.576111
447.000000	70.540205
445.500000	70.524247
444.000000	70.786730
442.500000	70.968359
441.000000	70.884439
439.500000	70.785294
438.000000	70.693946
436.500000	70.688461
435.000000	70.608338
433.500000	70.565227
432.000000	70.520101
430.500000	70.490884
429.000000	70.419397
427.500000	70.329214
426.000000	70.237032
424.500000	70.212423
423.000000	70.137905
421.500000	70.025843
420.000000	69.949019
418.500000	69.868520
417.000000	69.826026
415.500000	69.630290
414.000000	69.630387
412.500000	69.518476
411.000000	69.440245
409.500000	69.352471
408.000000	69.366949
406.500000	69.269100
405.000000	69.110105
403.500000	69.021401
402.000000	68.938742
400.500000	68.767800
399.000000	68.629323
397.500000	68.591179
396.000000	68.456625
394.500000	68.331066
393.000000	68.207530
391.500000	68.102695
390.000000	67.974114
388.500000	67.743434
387.000000	67.593368
385.500000	67.516481
384.000000	67.222458
382.500000	67.025163
381.000000	66.689571
379.500000	66.414107
378.000000	66.360723
376.500000	66.864721
375.000000	67.216070
373.500000	66.211152
372.000000	65.351379
370.500000	64.275900
369.000000	63.123906
367.500000	61.765118
366.000000	60.249656
364.500000	58.366381
363.000000	56.276007
361.500000	53.637357
360.000000	50.570051
358.500000	47.098877
357.000000	42.944675
355.500000	38.409430
354.000000	33.274249
352.500000	27.936644
351.000000	22.658645
349.500000	17.385788
348.000000	12.686757
346.500000	8.613596
345.000000	5.351821
343.500000	2.991642
342.000000	1.455310
340.500000	0.613732
339.000000	0.213577
337.500000	0.080047
336.000000	0.027968
334.500000	0.024130
333.000000	0.011758
331.500000	0.021813
330.000000	0.038742
328.500000	0.018110
327.000000	0.026558
325.500000	0.025111
324.000000	0.027344
322.500000	0.023814
321.000000	0.038300
319.500000	0.018197
318.000000	-0.006490
316.500000	-0.036530
315.000000	-0.036538
313.500000	-0.030559
312.000000	-0.035196
310.500000	-0.040678
309.000000	-0.029522
307.500000	-0.027323
306.000000	-0.018953
304.500000	-0.018403
303.000000	-0.017689
301.500000	-0.017596
300.000000	-0.018165
