PE UV       SUBTECH     SPECTRUM    ASCII       PEDS        4.00        
   -1
Sample59.Sample.Raw.asc
20/12/15
16:23:56.00
20/12/15
16:23:56.00
Administrator

300.000000
1
Lambda 850
850L1710193
PerkinElmer UV WinLab 6.4.0.973 / 2.02.06 Lambda 800 UV/VIS, Jan 28 2016 16:58:34

0
0
2
0
0
UV/VIS
1
1
1
RBeamAtt,SBeamAtt,60mm sphere
0
0
0
0
Fix
 
0
0.2
0
0
0
 
 
 
0
 
0
319.2
0
Front
100
 
S:100 R:100
 
0
0
0
 
0
 
 
 
0
 
 
0
0
0
0
0
 
 
 
 
0
0


0
0
#HDR
-1
-1
#GR
nm
%T
1.0
0.0
750.000000
-1.500000
301
8
74.399534
-0.021322
#DATA
750.000000	73.883403
748.500000	74.168950
747.000000	74.336807
745.500000	74.224077
744.000000	74.399534
742.500000	74.277838
741.000000	74.122833
739.500000	73.997700
738.000000	74.206665
736.500000	74.100208
735.000000	74.094678
733.500000	74.101877
732.000000	74.139263
730.500000	74.218088
729.000000	74.133644
727.500000	73.975639
726.000000	73.991094
724.500000	74.049496
723.000000	74.068753
721.500000	73.921813
720.000000	74.020688
718.500000	74.026282
717.000000	73.991418
715.500000	74.009766
714.000000	73.909004
712.500000	73.774407
711.000000	74.046601
709.500000	73.874424
708.000000	73.861316
706.500000	73.861169
705.000000	73.908271
703.500000	73.939188
702.000000	73.863034
700.500000	73.849610
699.000000	73.843014
697.500000	73.777042
696.000000	73.843286
694.500000	73.792605
693.000000	73.729965
691.500000	73.747576
690.000000	73.562926
688.500000	73.804266
687.000000	73.826528
685.500000	73.810272
684.000000	73.770784
682.500000	73.706714
681.000000	73.821138
679.500000	73.765250
678.000000	73.679067
676.500000	73.655021
675.000000	73.655281
673.500000	73.639975
672.000000	73.601430
670.500000	73.615088
669.000000	73.579913
667.500000	73.640226
666.000000	73.543735
664.500000	73.618251
663.000000	73.678983
661.500000	73.600257
660.000000	73.554235
658.500000	73.445074
657.000000	73.445293
655.500000	73.465582
654.000000	73.434742
652.500000	73.462005
651.000000	73.428738
649.500000	73.439946
648.000000	73.426171
646.500000	73.397888
645.000000	73.345321
643.500000	73.371898
642.000000	73.421408
640.500000	73.373515
639.000000	73.362771
637.500000	73.281340
636.000000	73.303010
634.500000	73.296784
633.000000	73.258882
631.500000	73.257838
630.000000	73.235939
628.500000	73.267412
627.000000	73.233647
625.500000	73.198013
624.000000	73.198991
622.500000	73.133769
621.000000	73.161483
619.500000	73.164823
618.000000	73.100612
616.500000	73.060052
615.000000	73.077678
613.500000	73.059707
612.000000	73.013339
610.500000	72.987234
609.000000	72.975131
607.500000	72.924341
606.000000	72.867868
604.500000	72.855392
603.000000	72.889312
601.500000	72.862986
600.000000	72.859038
598.500000	72.834507
597.000000	72.835536
595.500000	72.829583
594.000000	72.818017
592.500000	72.812651
591.000000	72.764163
589.500000	72.734511
588.000000	72.707644
586.500000	72.709805
585.000000	72.697396
583.500000	72.665214
582.000000	72.657029
580.500000	72.604613
579.000000	72.585149
577.500000	72.568400
576.000000	72.539148
574.500000	72.536033
573.000000	72.538456
571.500000	72.488753
570.000000	72.429434
568.500000	72.393105
567.000000	72.336317
565.500000	72.301462
564.000000	72.236982
562.500000	72.210672
561.000000	72.351386
559.500000	72.450447
558.000000	72.427736
556.500000	72.409669
555.000000	72.383070
553.500000	72.375635
552.000000	72.372343
550.500000	72.337007
549.000000	72.263654
547.500000	72.263857
546.000000	72.315675
544.500000	72.287664
543.000000	72.243761
541.500000	72.221030
540.000000	72.197794
538.500000	72.182671
537.000000	72.162866
535.500000	72.144931
534.000000	72.126145
532.500000	72.095411
531.000000	72.068106
529.500000	72.065170
528.000000	72.008954
526.500000	71.975167
525.000000	71.967759
523.500000	71.908286
522.000000	71.816785
520.500000	71.765782
519.000000	71.670239
517.500000	71.541145
516.000000	71.380412
514.500000	71.189906
513.000000	70.955492
511.500000	70.726499
510.000000	70.492717
508.500000	70.268079
507.000000	70.047376
505.500000	69.870949
504.000000	69.739330
502.500000	69.669011
501.000000	69.644640
499.500000	69.739370
498.000000	69.869027
496.500000	69.912143
495.000000	69.996928
493.500000	70.165604
492.000000	70.368646
490.500000	70.503199
489.000000	70.638446
487.500000	70.809879
486.000000	70.899849
484.500000	71.052588
483.000000	71.335636
481.500000	71.668833
480.000000	71.710764
478.500000	71.446214
477.000000	71.179017
475.500000	70.981006
474.000000	70.836887
472.500000	70.696775
471.000000	70.527715
469.500000	70.334022
468.000000	70.086312
466.500000	69.864592
465.000000	69.588190
463.500000	69.336146
462.000000	69.156460
460.500000	69.022453
459.000000	68.901143
457.500000	68.851120
456.000000	68.799885
454.500000	68.864353
453.000000	68.832060
451.500000	68.838463
450.000000	68.881457
448.500000	68.973419
447.000000	68.970491
445.500000	68.987304
444.000000	69.235949
442.500000	69.402335
441.000000	69.338921
439.500000	69.218098
438.000000	69.099307
436.500000	69.090020
435.000000	68.988547
433.500000	68.899906
432.000000	68.868256
430.500000	68.795469
429.000000	68.725460
427.500000	68.642977
426.000000	68.528597
424.500000	68.526971
423.000000	68.397626
421.500000	68.296748
420.000000	68.197809
418.500000	68.118268
417.000000	68.033813
415.500000	67.895668
414.000000	67.834911
412.500000	67.699025
411.000000	67.635290
409.500000	67.583948
408.000000	67.436063
406.500000	67.373601
405.000000	67.217959
403.500000	67.170774
402.000000	66.982442
400.500000	66.867490
399.000000	66.667687
397.500000	66.575504
396.000000	66.350481
394.500000	66.271177
393.000000	66.176142
391.500000	65.923785
390.000000	65.825110
388.500000	65.602325
387.000000	65.332602
385.500000	65.191947
384.000000	64.859090
382.500000	64.510521
381.000000	64.092887
379.500000	63.667297
378.000000	63.623129
376.500000	63.917603
375.000000	63.931783
373.500000	62.753152
372.000000	61.682269
370.500000	60.252391
369.000000	58.818050
367.500000	56.958463
366.000000	54.918270
364.500000	52.364974
363.000000	49.569951
361.500000	46.163815
360.000000	42.306254
358.500000	37.756635
357.000000	32.900384
355.500000	27.683795
354.000000	22.317407
352.500000	17.141767
351.000000	12.468322
349.500000	8.528219
348.000000	5.447201
346.500000	3.275625
345.000000	1.829603
343.500000	0.958102
342.000000	0.459859
340.500000	0.194539
339.000000	0.083264
337.500000	0.033816
336.000000	0.023245
334.500000	0.032297
333.000000	0.020461
331.500000	0.033230
330.000000	0.030586
328.500000	0.020153
327.000000	0.024608
325.500000	0.026041
324.000000	0.036180
322.500000	0.025303
321.000000	0.023577
319.500000	0.034994
318.000000	0.011758
316.500000	-0.018688
315.000000	-0.021322
313.500000	-0.020310
312.000000	-0.021174
310.500000	-0.016384
309.000000	-0.010187
307.500000	-0.005105
306.000000	-0.003506
304.500000	-0.000949
303.000000	-0.001712
301.500000	-0.003139
300.000000	-0.003994
