PE UV       SUBTECH     SPECTRUM    ASCII       PEDS        4.00        
   -1
Sample14.Sample.Raw.asc
21/03/30
11:49:01.00
21/03/30
11:49:01.00
Administrator

300.000000
1
Lambda 850
850L1710193
PerkinElmer UV WinLab 6.4.0.973 / 2.02.06 Lambda 800 UV/VIS, Jan 28 2016 16:58:34

0
0
2
0
0
UV/VIS
1
1
1
RBeamAtt,SBeamAtt,60mm sphere
0
0
0
0
Fix
 
0
0.2
0
0
0
 
 
 
0
 
0
340
0
Front
100
 
S:100 R:100
 
0
0
0
 
0
 
 
 
0
 
 
0
0
0
0
0
 
 
 
 
0
0


0
0
#HDR
-1
-1
#GR
nm
%T
1.0
0.0
750.000000
-1.500000
301
8
72.506258
-0.031855
#DATA
750.000000	72.202384
748.500000	72.296062
747.000000	72.488947
745.500000	72.506258
744.000000	72.331368
742.500000	72.333267
741.000000	72.159694
739.500000	72.109773
738.000000	72.345234
736.500000	72.098570
735.000000	72.141212
733.500000	72.119417
732.000000	72.263105
730.500000	72.140017
729.000000	72.103372
727.500000	72.099528
726.000000	72.088855
724.500000	71.944043
723.000000	72.131247
721.500000	72.081442
720.000000	71.984714
718.500000	72.050949
717.000000	71.942127
715.500000	71.812440
714.000000	71.894238
712.500000	71.903792
711.000000	71.873908
709.500000	71.896992
708.000000	71.734130
706.500000	71.690981
705.000000	71.711746
703.500000	71.700609
702.000000	71.749508
700.500000	71.635956
699.000000	71.714266
697.500000	71.636834
696.000000	71.718018
694.500000	71.613175
693.000000	71.602448
691.500000	71.423619
690.000000	71.429051
688.500000	71.482098
687.000000	71.446556
685.500000	71.404027
684.000000	71.417523
682.500000	71.358526
681.000000	71.435152
679.500000	71.363766
678.000000	71.361668
676.500000	71.230295
675.000000	71.143033
673.500000	71.111696
672.000000	71.126623
670.500000	71.131027
669.000000	71.044761
667.500000	70.959539
666.000000	70.947277
664.500000	70.843071
663.000000	70.807390
661.500000	70.792355
660.000000	70.709435
658.500000	70.696475
657.000000	70.611032
655.500000	70.546159
654.000000	70.487305
652.500000	70.422539
651.000000	70.323206
649.500000	70.227010
648.000000	70.183546
646.500000	70.101403
645.000000	70.027409
643.500000	69.969503
642.000000	69.923655
640.500000	69.867051
639.000000	69.761854
637.500000	69.653844
636.000000	69.522150
634.500000	69.452607
633.000000	69.371199
631.500000	69.325025
630.000000	69.241873
628.500000	69.115702
627.000000	69.044603
625.500000	68.977161
624.000000	68.824094
622.500000	68.734912
621.000000	68.637235
619.500000	68.547174
618.000000	68.400751
616.500000	68.359595
615.000000	68.271419
613.500000	68.123828
612.000000	68.019374
610.500000	67.938260
609.000000	67.844664
607.500000	67.735277
606.000000	67.618301
604.500000	67.509284
603.000000	67.419657
601.500000	67.289075
600.000000	67.144141
598.500000	67.030966
597.000000	66.960350
595.500000	66.876074
594.000000	66.742911
592.500000	66.655167
591.000000	66.584354
589.500000	66.474022
588.000000	66.386212
586.500000	66.293326
585.000000	66.158995
583.500000	66.012049
582.000000	65.919679
580.500000	65.837426
579.000000	65.747149
577.500000	65.611153
576.000000	65.486954
574.500000	65.365925
573.000000	65.231876
571.500000	65.121504
570.000000	65.050307
568.500000	64.962641
567.000000	64.833839
565.500000	64.687548
564.000000	64.542937
562.500000	64.456162
561.000000	64.512749
559.500000	64.524612
558.000000	64.457452
556.500000	64.355551
555.000000	64.206647
553.500000	64.091057
552.000000	63.984340
550.500000	63.904741
549.000000	63.827134
547.500000	63.730951
546.000000	63.628106
544.500000	63.546033
543.000000	63.478733
541.500000	63.406825
540.000000	63.295680
538.500000	63.202607
537.000000	63.126846
535.500000	63.049778
534.000000	62.961599
532.500000	62.876540
531.000000	62.795560
529.500000	62.679570
528.000000	62.599629
526.500000	62.532578
525.000000	62.427933
523.500000	62.324313
522.000000	62.225429
520.500000	62.117124
519.000000	61.988792
517.500000	61.851941
516.000000	61.682299
514.500000	61.487506
513.000000	61.287656
511.500000	61.073235
510.000000	60.838615
508.500000	60.663306
507.000000	60.503840
505.500000	60.333114
504.000000	60.241692
502.500000	60.210436
501.000000	60.266337
499.500000	60.336785
498.000000	60.459010
496.500000	60.546676
495.000000	60.710338
493.500000	60.873175
492.000000	61.029517
490.500000	61.157867
489.000000	61.258034
487.500000	61.373907
486.000000	61.486881
484.500000	61.539885
483.000000	61.761862
481.500000	61.961947
480.000000	61.946444
478.500000	61.624571
477.000000	61.325247
475.500000	61.123980
474.000000	61.026902
472.500000	60.856794
471.000000	60.680200
469.500000	60.516516
468.000000	60.304707
466.500000	60.085773
465.000000	59.845005
463.500000	59.692315
462.000000	59.504098
460.500000	59.375307
459.000000	59.365546
457.500000	59.362282
456.000000	59.378783
454.500000	59.353859
453.000000	59.427776
451.500000	59.496699
450.000000	59.495981
448.500000	59.561833
447.000000	59.577259
445.500000	59.587201
444.000000	59.892572
442.500000	59.961135
441.000000	59.866165
439.500000	59.721072
438.000000	59.697029
436.500000	59.564128
435.000000	59.515557
433.500000	59.498646
432.000000	59.386993
430.500000	59.288414
429.000000	59.270333
427.500000	59.198947
426.000000	59.140606
424.500000	59.071954
423.000000	58.904649
421.500000	58.865013
420.000000	58.830819
418.500000	58.750678
417.000000	58.663239
415.500000	58.592320
414.000000	58.465429
412.500000	58.412475
411.000000	58.377551
409.500000	58.280399
408.000000	58.202994
406.500000	58.073508
405.000000	58.001813
403.500000	57.882822
402.000000	57.836819
400.500000	57.716793
399.000000	57.614147
397.500000	57.528740
396.000000	57.508539
394.500000	57.388501
393.000000	57.298492
391.500000	57.202102
390.000000	57.066577
388.500000	56.991494
387.000000	56.736296
385.500000	56.594669
384.000000	56.466924
382.500000	56.248311
381.000000	56.112164
379.500000	55.736824
378.000000	55.615439
376.500000	56.019168
375.000000	56.132005
373.500000	55.137011
372.000000	54.366905
370.500000	53.241683
369.000000	52.041182
367.500000	50.634638
366.000000	48.931951
364.500000	46.851568
363.000000	44.494340
361.500000	41.712695
360.000000	38.368460
358.500000	34.612346
357.000000	30.257643
355.500000	25.790488
354.000000	20.943800
352.500000	16.324539
351.000000	12.019415
349.500000	8.359197
348.000000	5.451089
346.500000	3.280308
345.000000	1.881525
343.500000	1.005276
342.000000	0.489402
340.500000	0.217833
339.000000	0.047540
337.500000	-0.006678
336.000000	-0.031855
334.500000	-0.028064
333.000000	-0.020944
331.500000	-0.026749
330.000000	-0.025646
328.500000	-0.024132
327.000000	-0.030308
325.500000	-0.025972
324.000000	-0.027476
322.500000	-0.026799
321.000000	-0.024320
319.500000	-0.019760
318.000000	0.001224
316.500000	-0.021629
315.000000	-0.025023
313.500000	-0.026379
312.000000	-0.027499
310.500000	-0.023670
309.000000	-0.020579
307.500000	-0.012391
306.000000	-0.007862
304.500000	-0.003612
303.000000	-0.003327
301.500000	-0.012177
300.000000	-0.012565
