PE UV       SUBTECH     SPECTRUM    ASCII       PEDS        4.00        
   -1
Sample151.Sample.Raw.asc
21/01/27
12:14:07.00
21/01/27
12:14:07.00
Administrator

300.000000
1
Lambda 850
850L1710193
PerkinElmer UV WinLab 6.4.0.973 / 2.02.06 Lambda 800 UV/VIS, Jan 28 2016 16:58:34

0
0
2
0
0
UV/VIS
1
1
1
RBeamAtt,SBeamAtt,60mm sphere
0
0
0
0
Fix
 
0
0.2
0
0
0
 
 
 
0
 
0
319.2
0
Front
100
 
S:100 R:100
 
0
0
0
 
0
 
 
 
0
 
 
0
0
0
0
0
 
 
 
 
0
0


0
0
#HDR
-1
-1
#GR
nm
%T
1.0
0.0
750.000000
-1.500000
301
8
72.655159
-0.033028
#DATA
750.000000	72.178115
748.500000	72.561175
747.000000	72.655159
745.500000	72.546094
744.000000	72.359604
742.500000	72.274371
741.000000	72.337574
739.500000	72.412917
738.000000	72.233819
736.500000	72.283141
735.000000	72.228321
733.500000	72.315541
732.000000	72.270784
730.500000	72.309183
729.000000	72.255889
727.500000	72.286553
726.000000	72.135845
724.500000	72.295672
723.000000	72.175726
721.500000	72.169884
720.000000	72.199356
718.500000	72.136478
717.000000	71.971280
715.500000	72.080492
714.000000	72.144115
712.500000	71.930175
711.000000	72.007912
709.500000	71.976338
708.000000	72.025399
706.500000	71.947599
705.000000	71.904378
703.500000	71.924136
702.000000	71.893732
700.500000	71.821313
699.000000	71.812447
697.500000	71.756580
696.000000	71.761598
694.500000	71.770851
693.000000	71.661729
691.500000	71.667441
690.000000	71.500987
688.500000	71.636728
687.000000	71.715745
685.500000	71.620429
684.000000	71.551736
682.500000	71.557733
681.000000	71.434047
679.500000	71.468166
678.000000	71.468792
676.500000	71.434861
675.000000	71.320707
673.500000	71.381229
672.000000	71.273066
670.500000	71.196047
669.000000	71.260578
667.500000	71.180644
666.000000	71.135358
664.500000	71.080813
663.000000	70.981972
661.500000	70.992282
660.000000	70.915572
658.500000	70.884154
657.000000	70.840437
655.500000	70.684462
654.000000	70.652633
652.500000	70.613802
651.000000	70.566426
649.500000	70.395348
648.000000	70.340406
646.500000	70.353938
645.000000	70.247875
643.500000	70.151803
642.000000	70.101595
640.500000	70.003373
639.000000	69.900681
637.500000	69.893124
636.000000	69.781917
634.500000	69.705286
633.000000	69.611659
631.500000	69.494839
630.000000	69.424265
628.500000	69.352443
627.000000	69.285853
625.500000	69.257343
624.000000	69.111045
622.500000	69.033582
621.000000	68.931568
619.500000	68.842825
618.000000	68.712822
616.500000	68.605324
615.000000	68.552923
613.500000	68.454230
612.000000	68.351869
610.500000	68.281597
609.000000	68.144702
607.500000	68.047121
606.000000	67.974756
604.500000	67.903871
603.000000	67.771469
601.500000	67.637015
600.000000	67.528307
598.500000	67.448440
597.000000	67.386949
595.500000	67.282085
594.000000	67.155814
592.500000	67.070570
591.000000	66.965726
589.500000	66.855892
588.000000	66.755947
586.500000	66.693286
585.000000	66.576718
583.500000	66.437448
582.000000	66.349427
580.500000	66.257417
579.000000	66.166636
577.500000	66.060485
576.000000	65.932600
574.500000	65.802545
573.000000	65.693267
571.500000	65.622075
570.000000	65.511350
568.500000	65.398693
567.000000	65.249708
565.500000	65.117299
564.000000	65.012286
562.500000	64.952429
561.000000	64.975995
559.500000	65.016475
558.000000	64.964953
556.500000	64.845535
555.000000	64.734055
553.500000	64.655222
552.000000	64.581134
550.500000	64.485041
549.000000	64.374327
547.500000	64.282187
546.000000	64.218336
544.500000	64.136505
543.000000	64.045347
541.500000	63.962808
540.000000	63.871174
538.500000	63.775315
537.000000	63.717976
535.500000	63.643807
534.000000	63.550156
532.500000	63.472965
531.000000	63.420204
529.500000	63.359321
528.000000	63.282851
526.500000	63.184311
525.000000	63.101962
523.500000	63.006497
522.000000	62.882408
520.500000	62.761394
519.000000	62.644956
517.500000	62.518993
516.000000	62.360360
514.500000	62.146846
513.000000	61.938403
511.500000	61.728641
510.000000	61.525382
508.500000	61.336823
507.000000	61.120342
505.500000	60.957050
504.000000	60.858702
502.500000	60.831172
501.000000	60.884616
499.500000	60.991326
498.000000	61.071046
496.500000	61.180800
495.000000	61.350756
493.500000	61.530994
492.000000	61.654609
490.500000	61.754246
489.000000	61.864905
487.500000	61.985720
486.000000	62.110471
484.500000	62.169633
483.000000	62.390451
481.500000	62.585268
480.000000	62.578304
478.500000	62.293394
477.000000	62.028139
475.500000	61.827727
474.000000	61.700385
472.500000	61.546735
471.000000	61.384391
469.500000	61.186282
468.000000	60.981399
466.500000	60.725086
465.000000	60.553579
463.500000	60.321269
462.000000	60.161839
460.500000	60.049848
459.000000	60.008418
457.500000	59.954448
456.000000	59.973768
454.500000	60.041127
453.000000	60.080837
451.500000	60.142288
450.000000	60.202495
448.500000	60.246883
447.000000	60.219853
445.500000	60.287970
444.000000	60.544984
442.500000	60.632176
441.000000	60.518431
439.500000	60.460638
438.000000	60.389450
436.500000	60.260585
435.000000	60.212581
433.500000	60.186445
432.000000	60.124272
430.500000	60.052127
429.000000	59.964758
427.500000	59.895600
426.000000	59.776068
424.500000	59.746295
423.000000	59.715288
421.500000	59.652190
420.000000	59.489267
418.500000	59.481303
417.000000	59.416471
415.500000	59.350812
414.000000	59.183517
412.500000	59.141033
411.000000	59.082171
409.500000	58.965533
408.000000	58.892188
406.500000	58.777698
405.000000	58.669078
403.500000	58.592988
402.000000	58.546932
400.500000	58.462781
399.000000	58.387598
397.500000	58.251463
396.000000	58.194321
394.500000	58.054730
393.000000	57.958433
391.500000	57.929386
390.000000	57.754596
388.500000	57.599825
387.000000	57.527756
385.500000	57.294356
384.000000	57.129787
382.500000	56.916760
381.000000	56.727995
379.500000	56.508560
378.000000	56.188481
376.500000	56.616630
375.000000	56.572085
373.500000	55.844807
372.000000	54.937167
370.500000	53.931795
369.000000	52.615060
367.500000	51.107004
366.000000	49.422776
364.500000	47.397463
363.000000	45.098508
361.500000	42.161494
360.000000	38.856018
358.500000	34.930792
357.000000	30.743237
355.500000	26.095696
354.000000	21.266417
352.500000	16.571502
351.000000	12.224345
349.500000	8.509642
348.000000	5.514450
346.500000	3.372595
345.000000	1.914213
343.500000	1.020841
342.000000	0.499797
340.500000	0.232655
339.000000	0.099463
337.500000	0.050770
336.000000	0.042002
334.500000	0.038154
333.000000	0.040162
331.500000	0.049318
330.000000	0.049253
328.500000	0.047929
327.000000	0.052463
325.500000	0.042365
324.000000	0.047571
322.500000	0.049597
321.000000	0.045097
319.500000	0.051970
318.000000	0.002077
316.500000	-0.028040
315.000000	-0.033028
313.500000	-0.027975
312.000000	-0.028115
310.500000	-0.019638
309.000000	-0.015696
307.500000	-0.014301
306.000000	-0.007498
304.500000	-0.008367
303.000000	-0.007806
301.500000	-0.013435
300.000000	-0.011553
