PE UV       SUBTECH     SPECTRUM    ASCII       PEDS        4.00        
   -1
Sample225.Sample.Raw.asc
21/02/05
14:20:36.00
21/02/05
14:20:36.00
Administrator

300.000000
1
Lambda 850
850L1710193
PerkinElmer UV WinLab 6.4.0.973 / 2.02.06 Lambda 800 UV/VIS, Jan 28 2016 16:58:34

0
0
2
0
0
UV/VIS
1
1
1
RBeamAtt,SBeamAtt,60mm sphere
0
0
0
0
Fix
 
0
0.2
0
0
0
 
 
 
0
 
0
340
0
Front
100
 
S:100 R:100
 
0
0
0
 
0
 
 
 
0
 
 
0
0
0
0
0
 
 
 
 
0
0


0
0
#HDR
-1
-1
#GR
nm
%T
1.0
0.0
750.000000
-1.500000
301
8
74.359297
-0.039966
#DATA
750.000000	74.051854
748.500000	74.229755
747.000000	74.359297
745.500000	74.277108
744.000000	74.161041
742.500000	74.192109
741.000000	74.247870
739.500000	74.229946
738.000000	74.034445
736.500000	74.231804
735.000000	74.128984
733.500000	74.099474
732.000000	74.152274
730.500000	74.128212
729.000000	74.029105
727.500000	74.069966
726.000000	74.102404
724.500000	73.993520
723.000000	74.131233
721.500000	73.970145
720.000000	73.974763
718.500000	74.007123
717.000000	74.008826
715.500000	74.044791
714.000000	73.982687
712.500000	74.096012
711.000000	73.940084
709.500000	73.921094
708.000000	73.940988
706.500000	73.957358
705.000000	74.021635
703.500000	73.929203
702.000000	73.868589
700.500000	73.775157
699.000000	74.007436
697.500000	73.917343
696.000000	73.865505
694.500000	73.800081
693.000000	73.761899
691.500000	73.870675
690.000000	73.538461
688.500000	73.773736
687.000000	73.792104
685.500000	73.747404
684.000000	73.797510
682.500000	73.849212
681.000000	73.704726
679.500000	73.720177
678.000000	73.689043
676.500000	73.681096
675.000000	73.637636
673.500000	73.644453
672.000000	73.695965
670.500000	73.594661
669.000000	73.620868
667.500000	73.573925
666.000000	73.589868
664.500000	73.614250
663.000000	73.557141
661.500000	73.563169
660.000000	73.552130
658.500000	73.540943
657.000000	73.458218
655.500000	73.500284
654.000000	73.509411
652.500000	73.464866
651.000000	73.369123
649.500000	73.369923
648.000000	73.441687
646.500000	73.484125
645.000000	73.408632
643.500000	73.334041
642.000000	73.411378
640.500000	73.380516
639.000000	73.371190
637.500000	73.320640
636.000000	73.311303
634.500000	73.302292
633.000000	73.258898
631.500000	73.251240
630.000000	73.227613
628.500000	73.155124
627.000000	73.094358
625.500000	73.122731
624.000000	73.172581
622.500000	73.201803
621.000000	73.189923
619.500000	73.126826
618.000000	73.102985
616.500000	73.062649
615.000000	72.972913
613.500000	72.967376
612.000000	73.010005
610.500000	73.075073
609.000000	72.999485
607.500000	72.920201
606.000000	72.952067
604.500000	72.964360
603.000000	72.885474
601.500000	72.847309
600.000000	72.871664
598.500000	72.879157
597.000000	72.852356
595.500000	72.807728
594.000000	72.786102
592.500000	72.782330
591.000000	72.763571
589.500000	72.714648
588.000000	72.694674
586.500000	72.679690
585.000000	72.647783
583.500000	72.634120
582.000000	72.609104
580.500000	72.565243
579.000000	72.516909
577.500000	72.501421
576.000000	72.476885
574.500000	72.429081
573.000000	72.397461
571.500000	72.390177
570.000000	72.383576
568.500000	72.360290
567.000000	72.293492
565.500000	72.231404
564.000000	72.163849
562.500000	72.122039
561.000000	72.252285
559.500000	72.410548
558.000000	72.389032
556.500000	72.357480
555.000000	72.348120
553.500000	72.318942
552.000000	72.330948
550.500000	72.309676
549.000000	72.266922
547.500000	72.253660
546.000000	72.235620
544.500000	72.209192
543.000000	72.184242
541.500000	72.140052
540.000000	72.120231
538.500000	72.130126
537.000000	72.131334
535.500000	72.101135
534.000000	72.084943
532.500000	72.063623
531.000000	72.041644
529.500000	72.032578
528.000000	71.996683
526.500000	71.952613
525.000000	71.902575
523.500000	71.835585
522.000000	71.743269
520.500000	71.639635
519.000000	71.564365
517.500000	71.478081
516.000000	71.311060
514.500000	71.100580
513.000000	70.882398
511.500000	70.653102
510.000000	70.414051
508.500000	70.171020
507.000000	69.964915
505.500000	69.797291
504.000000	69.673801
502.500000	69.610487
501.000000	69.587069
499.500000	69.614388
498.000000	69.687354
496.500000	69.816288
495.000000	69.907637
493.500000	70.049936
492.000000	70.189021
490.500000	70.311523
489.000000	70.453539
487.500000	70.602589
486.000000	70.746764
484.500000	70.924519
483.000000	71.189240
481.500000	71.501926
480.000000	71.536300
478.500000	71.235749
477.000000	70.942344
475.500000	70.786367
474.000000	70.668645
472.500000	70.497614
471.000000	70.322251
469.500000	70.107457
468.000000	69.852466
466.500000	69.607998
465.000000	69.340978
463.500000	69.109902
462.000000	68.908612
460.500000	68.763928
459.000000	68.678261
457.500000	68.587360
456.000000	68.595866
454.500000	68.595822
453.000000	68.611078
451.500000	68.625257
450.000000	68.631179
448.500000	68.619375
447.000000	68.661879
445.500000	68.658885
444.000000	68.950597
442.500000	69.049820
441.000000	68.978214
439.500000	68.947450
438.000000	68.804412
436.500000	68.706707
435.000000	68.593729
433.500000	68.611111
432.000000	68.552303
430.500000	68.502428
429.000000	68.358436
427.500000	68.345843
426.000000	68.292284
424.500000	68.168630
423.000000	68.019612
421.500000	68.031234
420.000000	67.951287
418.500000	67.852967
417.000000	67.716533
415.500000	67.665015
414.000000	67.555483
412.500000	67.557320
411.000000	67.476300
409.500000	67.310614
408.000000	67.176880
406.500000	67.071681
405.000000	67.045866
403.500000	66.881839
402.000000	66.825322
400.500000	66.711132
399.000000	66.561459
397.500000	66.395069
396.000000	66.306003
394.500000	66.106672
393.000000	65.976229
391.500000	65.865190
390.000000	65.771672
388.500000	65.535876
387.000000	65.290694
385.500000	65.084928
384.000000	64.858328
382.500000	64.641643
381.000000	64.208809
379.500000	63.785373
378.000000	63.604123
376.500000	64.130028
375.000000	63.880852
373.500000	63.071409
372.000000	61.872224
370.500000	60.454904
369.000000	59.068106
367.500000	57.372749
366.000000	55.439235
364.500000	53.195107
363.000000	50.308634
361.500000	47.045912
360.000000	43.274837
358.500000	39.062722
357.000000	34.146572
355.500000	29.071381
354.000000	23.692987
352.500000	18.525106
351.000000	13.665985
349.500000	9.570780
348.000000	6.251934
346.500000	3.845078
345.000000	2.226769
343.500000	1.200965
342.000000	0.600770
340.500000	0.280805
339.000000	0.083097
337.500000	-0.003348
336.000000	-0.025067
334.500000	-0.027390
333.000000	-0.005577
331.500000	-0.016098
330.000000	-0.021502
328.500000	-0.021232
327.000000	-0.010059
325.500000	-0.020993
324.000000	-0.023688
322.500000	-0.017267
321.000000	-0.027245
319.500000	-0.013184
318.000000	-0.004427
316.500000	-0.035317
315.000000	-0.039966
313.500000	-0.035469
312.000000	-0.036786
310.500000	-0.026850
309.000000	-0.014609
307.500000	-0.018902
306.000000	-0.014589
304.500000	-0.008070
303.000000	-0.003325
301.500000	-0.013881
300.000000	-0.012549
