PE UV       SUBTECH     SPECTRUM    ASCII       PEDS        4.00        
   -1
Sample47.Sample.Raw.asc
20/12/15
15:30:07.00
20/12/15
15:30:07.00
Administrator

300.000000
1
Lambda 850
850L1710193
PerkinElmer UV WinLab 6.4.0.973 / 2.02.06 Lambda 800 UV/VIS, Jan 28 2016 16:58:34

0
0
2
0
0
UV/VIS
1
1
1
RBeamAtt,SBeamAtt,60mm sphere
0
0
0
0
Fix
 
0
0.2
0
0
0
 
 
 
0
 
0
319.2
0
Front
100
 
S:100 R:100
 
0
0
0
 
0
 
 
 
0
 
 
0
0
0
0
0
 
 
 
 
0
0


0
0
#HDR
-1
-1
#GR
nm
%T
1.0
0.0
750.000000
-1.500000
301
8
74.415058
-0.037290
#DATA
750.000000	73.878185
748.500000	74.148559
747.000000	74.255582
745.500000	74.280183
744.000000	74.415058
742.500000	74.180884
741.000000	74.117663
739.500000	74.290613
738.000000	74.221072
736.500000	74.217759
735.000000	74.162596
733.500000	74.165446
732.000000	74.172149
730.500000	74.215008
729.000000	74.180086
727.500000	74.090260
726.000000	74.026527
724.500000	74.204024
723.000000	73.999792
721.500000	74.042292
720.000000	74.024747
718.500000	74.058062
717.000000	74.004500
715.500000	74.043740
714.000000	74.092386
712.500000	73.935631
711.000000	74.100475
709.500000	73.933831
708.000000	74.019876
706.500000	73.999451
705.000000	74.015263
703.500000	73.978004
702.000000	73.954034
700.500000	73.884343
699.000000	73.933553
697.500000	73.843664
696.000000	73.892434
694.500000	73.822475
693.000000	73.755022
691.500000	73.768976
690.000000	73.600886
688.500000	73.831757
687.000000	73.844280
685.500000	73.849650
684.000000	73.857897
682.500000	73.795189
681.000000	73.830971
679.500000	73.790161
678.000000	73.792281
676.500000	73.796108
675.000000	73.791282
673.500000	73.716337
672.000000	73.743773
670.500000	73.768169
669.000000	73.699367
667.500000	73.698359
666.000000	73.657383
664.500000	73.669874
663.000000	73.737479
661.500000	73.710010
660.000000	73.624601
658.500000	73.582430
657.000000	73.603960
655.500000	73.610164
654.000000	73.577786
652.500000	73.529458
651.000000	73.600870
649.500000	73.588625
648.000000	73.539334
646.500000	73.530977
645.000000	73.496028
643.500000	73.479251
642.000000	73.519765
640.500000	73.457267
639.000000	73.443348
637.500000	73.398692
636.000000	73.405223
634.500000	73.395812
633.000000	73.362046
631.500000	73.339538
630.000000	73.351712
628.500000	73.370150
627.000000	73.307790
625.500000	73.276038
624.000000	73.320511
622.500000	73.286570
621.000000	73.239365
619.500000	73.271193
618.000000	73.229382
616.500000	73.177752
615.000000	73.202587
613.500000	73.180519
612.000000	73.129592
610.500000	73.144845
609.000000	73.123516
607.500000	73.064252
606.000000	73.049893
604.500000	72.962786
603.000000	72.950733
601.500000	73.001895
600.000000	73.011413
598.500000	73.017185
597.000000	72.994994
595.500000	72.935787
594.000000	72.931824
592.500000	72.932564
591.000000	72.878750
589.500000	72.848871
588.000000	72.845015
586.500000	72.842795
585.000000	72.815996
583.500000	72.786773
582.000000	72.804651
580.500000	72.749836
579.000000	72.688707
577.500000	72.668336
576.000000	72.680088
574.500000	72.672358
573.000000	72.647002
571.500000	72.611581
570.000000	72.571032
568.500000	72.509847
567.000000	72.462601
565.500000	72.437470
564.000000	72.379299
562.500000	72.381064
561.000000	72.503227
559.500000	72.606188
558.000000	72.597599
556.500000	72.563935
555.000000	72.544014
553.500000	72.526618
552.000000	72.513115
550.500000	72.487843
549.000000	72.437799
547.500000	72.445006
546.000000	72.461819
544.500000	72.438935
543.000000	72.390354
541.500000	72.338631
540.000000	72.328930
538.500000	72.321011
537.000000	72.297480
535.500000	72.289345
534.000000	72.281952
532.500000	72.269815
531.000000	72.256463
529.500000	72.219370
528.000000	72.172554
526.500000	72.141659
525.000000	72.110435
523.500000	72.079877
522.000000	72.011027
520.500000	71.919016
519.000000	71.819913
517.500000	71.700732
516.000000	71.549754
514.500000	71.340327
513.000000	71.118113
511.500000	70.892650
510.000000	70.657261
508.500000	70.413449
507.000000	70.209147
505.500000	70.030921
504.000000	69.884096
502.500000	69.832128
501.000000	69.840700
499.500000	69.933400
498.000000	70.041275
496.500000	70.114285
495.000000	70.247658
493.500000	70.365555
492.000000	70.557077
490.500000	70.647553
489.000000	70.808830
487.500000	70.969070
486.000000	71.068181
484.500000	71.233483
483.000000	71.518137
481.500000	71.819942
480.000000	71.883472
478.500000	71.633127
477.000000	71.378403
475.500000	71.164282
474.000000	71.023637
472.500000	70.908498
471.000000	70.714543
469.500000	70.504808
468.000000	70.209687
466.500000	70.005368
465.000000	69.732029
463.500000	69.485019
462.000000	69.293608
460.500000	69.179928
459.000000	69.052764
457.500000	68.984776
456.000000	68.954042
454.500000	69.011674
453.000000	69.020102
451.500000	69.028533
450.000000	69.095140
448.500000	69.149233
447.000000	69.092837
445.500000	69.159858
444.000000	69.430163
442.500000	69.536158
441.000000	69.457813
439.500000	69.312049
438.000000	69.291510
436.500000	69.218446
435.000000	69.116889
433.500000	69.035473
432.000000	68.996468
430.500000	68.972878
429.000000	68.924013
427.500000	68.810985
426.000000	68.681923
424.500000	68.620687
423.000000	68.510801
421.500000	68.467318
420.000000	68.397181
418.500000	68.275550
417.000000	68.199624
415.500000	68.114956
414.000000	68.041702
412.500000	67.926190
411.000000	67.855884
409.500000	67.769919
408.000000	67.704304
406.500000	67.610872
405.000000	67.441372
403.500000	67.291053
402.000000	67.202862
400.500000	67.017781
399.000000	66.856335
397.500000	66.805518
396.000000	66.588655
394.500000	66.485558
393.000000	66.350342
391.500000	66.202122
390.000000	66.016413
388.500000	65.822251
387.000000	65.637522
385.500000	65.367184
384.000000	65.072842
382.500000	64.729563
381.000000	64.300375
379.500000	64.024111
378.000000	63.626093
376.500000	63.925983
375.000000	63.929776
373.500000	62.767457
372.000000	61.643826
370.500000	60.115907
369.000000	58.584304
367.500000	56.670049
366.000000	54.539984
364.500000	51.875075
363.000000	48.960193
361.500000	45.326673
360.000000	41.208774
358.500000	36.608659
357.000000	31.568910
355.500000	26.291805
354.000000	20.849071
352.500000	15.816344
351.000000	11.286855
349.500000	7.536766
348.000000	4.706752
346.500000	2.745766
345.000000	1.499118
343.500000	0.766334
342.000000	0.344732
340.500000	0.158236
339.000000	0.071038
337.500000	0.040765
336.000000	0.028061
334.500000	0.016056
333.000000	0.044069
331.500000	0.046039
330.000000	0.035498
328.500000	0.033806
327.000000	0.036308
325.500000	0.031156
324.000000	0.037110
322.500000	0.030698
321.000000	0.027304
319.500000	0.019690
318.000000	-0.001787
316.500000	-0.030426
315.000000	-0.037290
313.500000	-0.035260
312.000000	-0.032373
310.500000	-0.023635
309.000000	-0.024429
307.500000	-0.014087
306.000000	-0.010898
304.500000	-0.008158
303.000000	-0.008084
301.500000	-0.016360
300.000000	-0.011317
