PE UV       SUBTECH     SPECTRUM    ASCII       PEDS        4.00        
   -1
Sample117.Sample.Raw.asc
20/12/17
15:52:53.00
20/12/17
15:52:53.00
Administrator

300.000000
1
Lambda 850
850L1710193
PerkinElmer UV WinLab 6.4.0.973 / 2.02.06 Lambda 800 UV/VIS, Jan 28 2016 16:58:34

0
0
2
0
0
UV/VIS
1
1
1
RBeamAtt,SBeamAtt,60mm sphere
0
0
0
0
Fix
 
0
0.2
0
0
0
 
 
 
0
 
0
319.2
0
Front
100
 
S:100 R:100
 
0
0
0
 
0
 
 
 
0
 
 
0
0
0
0
0
 
 
 
 
0
0


0
0
#HDR
-1
-1
#GR
nm
%T
1.0
0.0
750.000000
-1.500000
301
8
74.578064
-0.033686
#DATA
750.000000	74.221222
748.500000	74.578064
747.000000	74.429550
745.500000	74.553784
744.000000	74.511798
742.500000	74.499187
741.000000	74.507542
739.500000	74.305580
738.000000	74.410796
736.500000	74.351488
735.000000	74.462455
733.500000	74.474722
732.000000	74.453776
730.500000	74.394725
729.000000	74.473175
727.500000	74.434394
726.000000	74.366748
724.500000	74.296639
723.000000	74.476481
721.500000	74.474896
720.000000	74.339621
718.500000	74.253152
717.000000	74.295969
715.500000	74.285744
714.000000	74.213966
712.500000	74.336879
711.000000	74.296419
709.500000	74.271560
708.000000	74.368286
706.500000	74.406468
705.000000	74.353678
703.500000	74.413717
702.000000	74.300010
700.500000	74.275779
699.000000	74.091389
697.500000	74.255091
696.000000	74.181149
694.500000	74.187132
693.000000	74.129289
691.500000	74.063002
690.000000	74.021817
688.500000	74.096920
687.000000	74.156981
685.500000	74.226744
684.000000	74.142116
682.500000	74.108735
681.000000	74.032078
679.500000	74.081657
678.000000	74.127184
676.500000	74.040099
675.000000	74.087831
673.500000	73.992491
672.000000	74.055617
670.500000	74.019434
669.000000	73.975944
667.500000	74.020212
666.000000	74.073226
664.500000	73.922701
663.000000	74.014879
661.500000	74.040296
660.000000	73.970227
658.500000	73.961192
657.000000	73.982765
655.500000	73.952798
654.000000	73.925438
652.500000	73.926095
651.000000	73.962070
649.500000	73.935346
648.000000	73.869172
646.500000	73.882203
645.000000	73.883803
643.500000	73.837708
642.000000	73.857927
640.500000	73.850440
639.000000	73.808703
637.500000	73.761300
636.000000	73.799058
634.500000	73.807612
633.000000	73.748838
631.500000	73.748551
630.000000	73.703500
628.500000	73.716702
627.000000	73.709571
625.500000	73.711415
624.000000	73.695765
622.500000	73.683916
621.000000	73.693864
619.500000	73.682705
618.000000	73.619690
616.500000	73.593051
615.000000	73.578211
613.500000	73.584594
612.000000	73.529729
610.500000	73.525559
609.000000	73.544332
607.500000	73.511196
606.000000	73.476580
604.500000	73.523723
603.000000	73.506061
601.500000	73.468369
600.000000	73.468155
598.500000	73.448805
597.000000	73.397631
595.500000	73.366449
594.000000	73.365669
592.500000	73.354188
591.000000	73.360320
589.500000	73.354620
588.000000	73.306164
586.500000	73.288925
585.000000	73.267784
583.500000	73.252261
582.000000	73.223898
580.500000	73.182011
579.000000	73.156818
577.500000	73.116595
576.000000	73.131523
574.500000	73.145628
573.000000	73.081187
571.500000	73.041145
570.000000	73.035619
568.500000	73.012954
567.000000	72.984010
565.500000	72.941065
564.000000	72.877496
562.500000	72.890967
561.000000	73.022823
559.500000	73.130236
558.000000	73.138588
556.500000	73.111990
555.000000	73.065129
553.500000	73.025491
552.000000	73.012431
550.500000	73.017164
549.000000	73.014580
547.500000	72.985801
546.000000	72.982156
544.500000	72.976967
543.000000	72.939064
541.500000	72.911705
540.000000	72.883834
538.500000	72.868078
537.000000	72.888920
535.500000	72.878621
534.000000	72.853189
532.500000	72.848767
531.000000	72.849282
529.500000	72.825253
528.000000	72.807955
526.500000	72.788415
525.000000	72.763607
523.500000	72.716560
522.000000	72.654815
520.500000	72.577786
519.000000	72.476984
517.500000	72.370740
516.000000	72.208428
514.500000	72.019690
513.000000	71.811513
511.500000	71.576627
510.000000	71.321760
508.500000	71.086133
507.000000	70.871295
505.500000	70.705989
504.000000	70.618617
502.500000	70.581569
501.000000	70.557662
499.500000	70.562129
498.000000	70.640257
496.500000	70.745599
495.000000	70.914988
493.500000	71.067637
492.000000	71.191328
490.500000	71.362181
489.000000	71.550201
487.500000	71.705855
486.000000	71.828357
484.500000	71.994984
483.000000	72.282411
481.500000	72.581667
480.000000	72.641020
478.500000	72.387666
477.000000	72.148798
475.500000	72.026765
474.000000	71.878962
472.500000	71.700696
471.000000	71.567800
469.500000	71.368952
468.000000	71.121666
466.500000	70.852962
465.000000	70.574603
463.500000	70.345871
462.000000	70.161043
460.500000	70.052456
459.000000	69.936770
457.500000	69.846692
456.000000	69.899744
454.500000	69.874218
453.000000	69.946646
451.500000	69.958255
450.000000	70.013693
448.500000	70.074155
447.000000	70.065320
445.500000	70.135112
444.000000	70.392660
442.500000	70.570730
441.000000	70.346716
439.500000	70.360530
438.000000	70.268014
436.500000	70.187836
435.000000	70.176791
433.500000	70.036842
432.000000	69.967705
430.500000	70.012409
429.000000	69.856205
427.500000	69.802062
426.000000	69.804939
424.500000	69.728880
423.000000	69.630825
421.500000	69.604464
420.000000	69.474571
418.500000	69.407255
417.000000	69.405788
415.500000	69.283141
414.000000	69.121595
412.500000	69.062185
411.000000	69.012690
409.500000	68.883874
408.000000	68.798040
406.500000	68.702321
405.000000	68.504451
403.500000	68.480781
402.000000	68.341197
400.500000	68.233498
399.000000	68.160271
397.500000	67.972956
396.000000	67.887227
394.500000	67.714852
393.000000	67.567448
391.500000	67.492823
390.000000	67.274516
388.500000	67.101290
387.000000	66.838184
385.500000	66.546632
384.000000	66.363923
382.500000	66.064207
381.000000	65.727654
379.500000	65.401877
378.000000	64.996370
376.500000	65.533807
375.000000	65.416872
373.500000	64.264048
372.000000	63.213581
370.500000	61.740712
369.000000	60.332708
367.500000	58.525698
366.000000	56.397112
364.500000	53.895017
363.000000	51.135462
361.500000	47.676455
360.000000	43.677440
358.500000	39.416446
357.000000	34.547529
355.500000	29.263419
354.000000	23.892110
352.500000	18.601954
351.000000	13.744699
349.500000	9.549712
348.000000	6.253970
346.500000	3.851053
345.000000	2.196678
343.500000	1.190622
342.000000	0.586237
340.500000	0.277472
339.000000	0.126305
337.500000	0.068682
336.000000	0.055487
334.500000	0.058039
333.000000	0.058172
331.500000	0.058446
330.000000	0.059720
328.500000	0.058688
327.000000	0.078479
325.500000	0.069234
324.000000	0.067086
322.500000	0.066155
321.000000	0.074407
319.500000	0.060007
318.000000	0.000188
316.500000	-0.026737
315.000000	-0.033686
313.500000	-0.032395
312.000000	-0.030837
310.500000	-0.028877
309.000000	-0.030367
307.500000	-0.026290
306.000000	-0.018280
304.500000	-0.014595
303.000000	-0.020879
301.500000	-0.014720
300.000000	-0.017788
