PE UV       SUBTECH     SPECTRUM    ASCII       PEDS        4.00        
   -1
Sample123.Sample.Raw.asc
20/12/17
16:18:11.00
20/12/17
16:18:11.00
Administrator

300.000000
1
Lambda 850
850L1710193
PerkinElmer UV WinLab 6.4.0.973 / 2.02.06 Lambda 800 UV/VIS, Jan 28 2016 16:58:34

0
0
2
0
0
UV/VIS
1
1
1
RBeamAtt,SBeamAtt,60mm sphere
0
0
0
0
Fix
 
0
0.2
0
0
0
 
 
 
0
 
0
319.2
0
Front
100
 
S:100 R:100
 
0
0
0
 
0
 
 
 
0
 
 
0
0
0
0
0
 
 
 
 
0
0


0
0
#HDR
-1
-1
#GR
nm
%T
1.0
0.0
750.000000
-1.500000
301
8
74.660196
-0.023740
#DATA
750.000000	74.367986
748.500000	74.492947
747.000000	74.660196
745.500000	74.621077
744.000000	74.596636
742.500000	74.607462
741.000000	74.606615
739.500000	74.454863
738.000000	74.483959
736.500000	74.447032
735.000000	74.541654
733.500000	74.460881
732.000000	74.561635
730.500000	74.483472
729.000000	74.369430
727.500000	74.354059
726.000000	74.390089
724.500000	74.470648
723.000000	74.505637
721.500000	74.533609
720.000000	74.381981
718.500000	74.365026
717.000000	74.434901
715.500000	74.427486
714.000000	74.422676
712.500000	74.401149
711.000000	74.415039
709.500000	74.291910
708.000000	74.358997
706.500000	74.425712
705.000000	74.396395
703.500000	74.491855
702.000000	74.415713
700.500000	74.350694
699.000000	74.278989
697.500000	74.308167
696.000000	74.224884
694.500000	74.205252
693.000000	74.169628
691.500000	74.141227
690.000000	74.188488
688.500000	74.247045
687.000000	74.275101
685.500000	74.368888
684.000000	74.287233
682.500000	74.202729
681.000000	74.088940
679.500000	74.174979
678.000000	74.178397
676.500000	74.187234
675.000000	74.179929
673.500000	74.116158
672.000000	74.183974
670.500000	74.121084
669.000000	74.098620
667.500000	74.081009
666.000000	74.113783
664.500000	74.038476
663.000000	74.092485
661.500000	74.079234
660.000000	74.046913
658.500000	74.082159
657.000000	74.051619
655.500000	74.080025
654.000000	74.022488
652.500000	74.023938
651.000000	74.037167
649.500000	74.035517
648.000000	74.005806
646.500000	73.977522
645.000000	74.010675
643.500000	73.926466
642.000000	73.900142
640.500000	73.906241
639.000000	73.872571
637.500000	73.835876
636.000000	73.886573
634.500000	73.904312
633.000000	73.789681
631.500000	73.784955
630.000000	73.767672
628.500000	73.817065
627.000000	73.813652
625.500000	73.788059
624.000000	73.776799
622.500000	73.770709
621.000000	73.736315
619.500000	73.730690
618.000000	73.660976
616.500000	73.646208
615.000000	73.644503
613.500000	73.671436
612.000000	73.591981
610.500000	73.577248
609.000000	73.611793
607.500000	73.625626
606.000000	73.609141
604.500000	73.583543
603.000000	73.539320
601.500000	73.531997
600.000000	73.547320
598.500000	73.478109
597.000000	73.447558
595.500000	73.469989
594.000000	73.481851
592.500000	73.425071
591.000000	73.390031
589.500000	73.401922
588.000000	73.384899
586.500000	73.378699
585.000000	73.309282
583.500000	73.302188
582.000000	73.325751
580.500000	73.255205
579.000000	73.240328
577.500000	73.236052
576.000000	73.230366
574.500000	73.235572
573.000000	73.168285
571.500000	73.130218
570.000000	73.143694
568.500000	73.059896
567.000000	72.988217
565.500000	72.980817
564.000000	72.953113
562.500000	72.969632
561.000000	73.090739
559.500000	73.197531
558.000000	73.204396
556.500000	73.190850
555.000000	73.157438
553.500000	73.118602
552.000000	73.107201
550.500000	73.097245
549.000000	73.092667
547.500000	73.087581
546.000000	73.083713
544.500000	73.042855
543.000000	73.000141
541.500000	72.983500
540.000000	72.958015
538.500000	72.934330
537.000000	72.952133
535.500000	72.958850
534.000000	72.951240
532.500000	72.932196
531.000000	72.909937
529.500000	72.913403
528.000000	72.884383
526.500000	72.861137
525.000000	72.819087
523.500000	72.774033
522.000000	72.711304
520.500000	72.644363
519.000000	72.556692
517.500000	72.428310
516.000000	72.254602
514.500000	72.081480
513.000000	71.856779
511.500000	71.620811
510.000000	71.390294
508.500000	71.155574
507.000000	70.941301
505.500000	70.755603
504.000000	70.642150
502.500000	70.594868
501.000000	70.598977
499.500000	70.604766
498.000000	70.687537
496.500000	70.827756
495.000000	70.960705
493.500000	71.083385
492.000000	71.258672
490.500000	71.443621
489.000000	71.620120
487.500000	71.762253
486.000000	71.863227
484.500000	72.079718
483.000000	72.358634
481.500000	72.662924
480.000000	72.741684
478.500000	72.461347
477.000000	72.165413
475.500000	72.048724
474.000000	71.896739
472.500000	71.762965
471.000000	71.608280
469.500000	71.391896
468.000000	71.178460
466.500000	70.899971
465.000000	70.633393
463.500000	70.399462
462.000000	70.194068
460.500000	70.083577
459.000000	69.984519
457.500000	69.932764
456.000000	69.965088
454.500000	69.966221
453.000000	70.000158
451.500000	69.998941
450.000000	70.073354
448.500000	70.099381
447.000000	70.134602
445.500000	70.214403
444.000000	70.400284
442.500000	70.588280
441.000000	70.433819
439.500000	70.374134
438.000000	70.316893
436.500000	70.231606
435.000000	70.189992
433.500000	70.109500
432.000000	70.051093
430.500000	70.034817
429.000000	69.909341
427.500000	69.883202
426.000000	69.797602
424.500000	69.742383
423.000000	69.647959
421.500000	69.660923
420.000000	69.576226
418.500000	69.424430
417.000000	69.400954
415.500000	69.268968
414.000000	69.195524
412.500000	69.028822
411.000000	69.059804
409.500000	68.898240
408.000000	68.887802
406.500000	68.803135
405.000000	68.663332
403.500000	68.553950
402.000000	68.451323
400.500000	68.334028
399.000000	68.219285
397.500000	68.040390
396.000000	67.984238
394.500000	67.837190
393.000000	67.689187
391.500000	67.592747
390.000000	67.411422
388.500000	67.162631
387.000000	66.917888
385.500000	66.606382
384.000000	66.377171
382.500000	66.135971
381.000000	65.783415
379.500000	65.559699
378.000000	65.088207
376.500000	65.698055
375.000000	65.529005
373.500000	64.397950
372.000000	63.267885
370.500000	61.880894
369.000000	60.339908
367.500000	58.653364
366.000000	56.454698
364.500000	54.016624
363.000000	51.250592
361.500000	47.815975
360.000000	43.761338
358.500000	39.485389
357.000000	34.650882
355.500000	29.356825
354.000000	23.932744
352.500000	18.704775
351.000000	13.822418
349.500000	9.627012
348.000000	6.307914
346.500000	3.875388
345.000000	2.247759
343.500000	1.208799
342.000000	0.602213
340.500000	0.276456
339.000000	0.143806
337.500000	0.072384
336.000000	0.058266
334.500000	0.059242
333.000000	0.068362
331.500000	0.059467
330.000000	0.068066
328.500000	0.057202
327.000000	0.065198
325.500000	0.077888
324.000000	0.076855
322.500000	0.078268
321.000000	0.073941
319.500000	0.060939
318.000000	0.007235
316.500000	-0.020076
315.000000	-0.023740
313.500000	-0.019625
312.000000	-0.021342
310.500000	-0.014862
309.000000	-0.014052
307.500000	-0.010024
306.000000	0.003031
304.500000	0.001422
303.000000	-0.003227
301.500000	-0.004559
300.000000	-0.004281
