PE UV       SUBTECH     SPECTRUM    ASCII       PEDS        4.00        
   -1
Sample121.Sample.Raw.asc
20/12/17
16:11:07.00
20/12/17
16:11:07.00
Administrator

300.000000
1
Lambda 850
850L1710193
PerkinElmer UV WinLab 6.4.0.973 / 2.02.06 Lambda 800 UV/VIS, Jan 28 2016 16:58:34

0
0
2
0
0
UV/VIS
1
1
1
RBeamAtt,SBeamAtt,60mm sphere
0
0
0
0
Fix
 
0
0.2
0
0
0
 
 
 
0
 
0
319.2
0
Front
100
 
S:100 R:100
 
0
0
0
 
0
 
 
 
0
 
 
0
0
0
0
0
 
 
 
 
0
0


0
0
#HDR
-1
-1
#GR
nm
%T
1.0
0.0
750.000000
-1.500000
301
8
74.706982
-0.028487
#DATA
750.000000	74.391642
748.500000	74.530427
747.000000	74.535524
745.500000	74.529659
744.000000	74.706982
742.500000	74.573979
741.000000	74.650216
739.500000	74.462856
738.000000	74.457149
736.500000	74.419410
735.000000	74.550795
733.500000	74.592170
732.000000	74.626464
730.500000	74.464767
729.000000	74.523226
727.500000	74.453102
726.000000	74.495040
724.500000	74.463749
723.000000	74.510185
721.500000	74.504049
720.000000	74.435784
718.500000	74.338722
717.000000	74.393522
715.500000	74.386036
714.000000	74.314014
712.500000	74.372269
711.000000	74.478461
709.500000	74.353122
708.000000	74.396395
706.500000	74.407120
705.000000	74.352129
703.500000	74.451929
702.000000	74.426075
700.500000	74.411655
699.000000	74.267901
697.500000	74.268646
696.000000	74.213787
694.500000	74.250633
693.000000	74.211927
691.500000	74.166866
690.000000	74.041579
688.500000	74.250725
687.000000	74.276819
685.500000	74.310016
684.000000	74.263320
682.500000	74.189875
681.000000	74.185728
679.500000	74.183656
678.000000	74.169793
676.500000	74.183955
675.000000	74.172630
673.500000	74.164429
672.000000	74.180693
670.500000	74.184256
669.000000	74.096078
667.500000	74.072065
666.000000	74.102781
664.500000	74.052507
663.000000	74.119585
661.500000	74.134520
660.000000	74.059228
658.500000	74.043150
657.000000	74.067970
655.500000	74.047889
654.000000	74.035965
652.500000	74.027473
651.000000	74.056003
649.500000	74.003936
648.000000	73.948752
646.500000	73.961320
645.000000	73.952916
643.500000	73.918322
642.000000	73.963176
640.500000	73.947063
639.000000	73.911913
637.500000	73.848141
636.000000	73.820958
634.500000	73.877872
633.000000	73.825336
631.500000	73.823335
630.000000	73.853757
628.500000	73.834369
627.000000	73.811015
625.500000	73.796548
624.000000	73.802848
622.500000	73.768154
621.000000	73.760468
619.500000	73.728382
618.000000	73.661388
616.500000	73.665411
615.000000	73.662973
613.500000	73.700548
612.000000	73.661983
610.500000	73.613686
609.000000	73.590433
607.500000	73.634618
606.000000	73.593632
604.500000	73.604501
603.000000	73.612441
601.500000	73.543551
600.000000	73.540964
598.500000	73.523097
597.000000	73.499795
595.500000	73.481622
594.000000	73.452888
592.500000	73.442895
591.000000	73.429727
589.500000	73.426770
588.000000	73.388695
586.500000	73.362444
585.000000	73.342859
583.500000	73.316053
582.000000	73.293231
580.500000	73.286149
579.000000	73.284064
577.500000	73.222192
576.000000	73.243072
574.500000	73.226248
573.000000	73.126551
571.500000	73.095991
570.000000	73.103599
568.500000	73.089761
567.000000	73.059811
565.500000	73.017682
564.000000	72.949980
562.500000	72.964850
561.000000	73.145369
559.500000	73.248065
558.000000	73.236929
556.500000	73.206044
555.000000	73.179731
553.500000	73.151702
552.000000	73.112814
550.500000	73.108968
549.000000	73.082101
547.500000	73.055388
546.000000	73.070172
544.500000	73.085872
543.000000	73.027213
541.500000	72.999097
540.000000	72.994735
538.500000	72.973932
537.000000	72.992981
535.500000	72.982043
534.000000	72.964940
532.500000	72.937147
531.000000	72.917860
529.500000	72.912908
528.000000	72.881412
526.500000	72.871868
525.000000	72.855001
523.500000	72.806815
522.000000	72.734758
520.500000	72.651467
519.000000	72.546697
517.500000	72.429632
516.000000	72.275087
514.500000	72.089740
513.000000	71.884368
511.500000	71.641210
510.000000	71.391285
508.500000	71.155078
507.000000	70.958142
505.500000	70.787881
504.000000	70.680298
502.500000	70.634021
501.000000	70.627155
499.500000	70.635340
498.000000	70.661583
496.500000	70.783575
495.000000	70.932794
493.500000	71.117614
492.000000	71.278411
490.500000	71.405433
489.000000	71.592684
487.500000	71.740127
486.000000	71.877874
484.500000	72.072469
483.000000	72.355465
481.500000	72.659750
480.000000	72.757987
478.500000	72.473209
477.000000	72.236551
475.500000	72.086715
474.000000	71.924865
472.500000	71.798189
471.000000	71.624305
469.500000	71.400740
468.000000	71.163281
466.500000	70.940479
465.000000	70.659374
463.500000	70.380406
462.000000	70.195066
460.500000	70.105711
459.000000	70.009641
457.500000	69.887358
456.000000	69.921553
454.500000	69.950818
453.000000	70.015329
451.500000	70.001276
450.000000	70.057416
448.500000	70.113664
447.000000	70.082536
445.500000	70.175009
444.000000	70.363922
442.500000	70.575600
441.000000	70.402771
439.500000	70.346927
438.000000	70.250209
436.500000	70.235975
435.000000	70.225643
433.500000	70.106304
432.000000	70.035105
430.500000	69.988231
429.000000	69.836922
427.500000	69.810319
426.000000	69.794060
424.500000	69.722973
423.000000	69.636902
421.500000	69.532791
420.000000	69.513559
418.500000	69.390248
417.000000	69.342267
415.500000	69.258274
414.000000	69.183797
412.500000	69.091633
411.000000	68.976757
409.500000	68.817862
408.000000	68.896641
406.500000	68.763188
405.000000	68.558476
403.500000	68.507018
402.000000	68.408907
400.500000	68.235678
399.000000	68.178045
397.500000	68.108350
396.000000	67.981331
394.500000	67.741793
393.000000	67.601092
391.500000	67.528618
390.000000	67.239556
388.500000	67.101111
387.000000	66.824617
385.500000	66.564227
384.000000	66.340828
382.500000	66.147812
381.000000	65.767971
379.500000	65.431750
378.000000	65.078772
376.500000	65.503624
375.000000	65.537034
373.500000	64.231620
372.000000	63.036726
370.500000	61.749445
369.000000	60.328243
367.500000	58.598285
366.000000	56.384174
364.500000	53.920834
363.000000	51.122771
361.500000	47.731149
360.000000	43.796707
358.500000	39.511483
357.000000	34.617593
355.500000	29.347659
354.000000	23.946778
352.500000	18.713963
351.000000	13.831513
349.500000	9.649807
348.000000	6.336634
346.500000	3.864050
345.000000	2.232268
343.500000	1.202063
342.000000	0.590762
340.500000	0.267869
339.000000	0.119545
337.500000	0.061554
336.000000	0.047984
334.500000	0.037489
333.000000	0.035107
331.500000	0.043046
330.000000	0.059534
328.500000	0.043087
327.000000	0.067056
325.500000	0.067559
324.000000	0.062899
322.500000	0.066994
321.000000	0.068812
319.500000	0.064200
318.000000	0.004228
316.500000	-0.027581
315.000000	-0.025335
313.500000	-0.025259
312.000000	-0.028487
310.500000	-0.028406
309.000000	-0.022822
307.500000	-0.018914
306.000000	-0.017806
304.500000	-0.008814
303.000000	-0.012812
301.500000	-0.017284
300.000000	-0.016932
