PE UV       SUBTECH     SPECTRUM    ASCII       PEDS        4.00        
   -1
Sample120.Sample.Raw.asc
20/12/17
16:03:40.00
20/12/17
16:03:40.00
Administrator

300.000000
1
Lambda 850
850L1710193
PerkinElmer UV WinLab 6.4.0.973 / 2.02.06 Lambda 800 UV/VIS, Jan 28 2016 16:58:34

0
0
2
0
0
UV/VIS
1
1
1
RBeamAtt,SBeamAtt,60mm sphere
0
0
0
0
Fix
 
0
0.2
0
0
0
 
 
 
0
 
0
319.2
0
Front
100
 
S:100 R:100
 
0
0
0
 
0
 
 
 
0
 
 
0
0
0
0
0
 
 
 
 
0
0


0
0
#HDR
-1
-1
#GR
nm
%T
1.0
0.0
750.000000
-1.500000
301
8
75.819995
-0.028406
#DATA
750.000000	75.704953
748.500000	75.807340
747.000000	75.792151
745.500000	75.819995
744.000000	75.748124
742.500000	75.698363
741.000000	75.813093
739.500000	75.671894
738.000000	75.655221
736.500000	75.625211
735.000000	75.794355
733.500000	75.738885
732.000000	75.736902
730.500000	75.658636
729.000000	75.733829
727.500000	75.708500
726.000000	75.570484
724.500000	75.645453
723.000000	75.740398
721.500000	75.657593
720.000000	75.600612
718.500000	75.593448
717.000000	75.681553
715.500000	75.660330
714.000000	75.467036
712.500000	75.570783
711.000000	75.639752
709.500000	75.558479
708.000000	75.542782
706.500000	75.610534
705.000000	75.515032
703.500000	75.594693
702.000000	75.498571
700.500000	75.430762
699.000000	75.420247
697.500000	75.472667
696.000000	75.406794
694.500000	75.355217
693.000000	75.356597
691.500000	75.322430
690.000000	75.275240
688.500000	75.380177
687.000000	75.400517
685.500000	75.442747
684.000000	75.425236
682.500000	75.345559
681.000000	75.250561
679.500000	75.285103
678.000000	75.351712
676.500000	75.296688
675.000000	75.333006
673.500000	75.232029
672.000000	75.320399
670.500000	75.279435
669.000000	75.199760
667.500000	75.225158
666.000000	75.234434
664.500000	75.175468
663.000000	75.211404
661.500000	75.220939
660.000000	75.178474
658.500000	75.118051
657.000000	75.135366
655.500000	75.177732
654.000000	75.128011
652.500000	75.109086
651.000000	75.142154
649.500000	75.145714
648.000000	75.114006
646.500000	75.083106
645.000000	75.082668
643.500000	75.056060
642.000000	75.028020
640.500000	75.051645
639.000000	75.062284
637.500000	74.974935
636.000000	74.979809
634.500000	75.018595
633.000000	74.985487
631.500000	74.961476
630.000000	74.956381
628.500000	74.937788
627.000000	74.956406
625.500000	74.893791
624.000000	74.903035
622.500000	74.888891
621.000000	74.868585
619.500000	74.860166
618.000000	74.815180
616.500000	74.774306
615.000000	74.770308
613.500000	74.758484
612.000000	74.727845
610.500000	74.696934
609.000000	74.718631
607.500000	74.793189
606.000000	74.744364
604.500000	74.732996
603.000000	74.744903
601.500000	74.733171
600.000000	74.701539
598.500000	74.690306
597.000000	74.661156
595.500000	74.624185
594.000000	74.597054
592.500000	74.575447
591.000000	74.609887
589.500000	74.650006
588.000000	74.587961
586.500000	74.513653
585.000000	74.481445
583.500000	74.499299
582.000000	74.494989
580.500000	74.454201
579.000000	74.440495
577.500000	74.402159
576.000000	74.397416
574.500000	74.408722
573.000000	74.357234
571.500000	74.344835
570.000000	74.331855
568.500000	74.313314
567.000000	74.303314
565.500000	74.274651
564.000000	74.240177
562.500000	74.241385
561.000000	74.388323
559.500000	74.527919
558.000000	74.526601
556.500000	74.511002
555.000000	74.490480
553.500000	74.467546
552.000000	74.481365
550.500000	74.471588
549.000000	74.449037
547.500000	74.460248
546.000000	74.480161
544.500000	74.477605
543.000000	74.443224
541.500000	74.454067
540.000000	74.462764
538.500000	74.442598
537.000000	74.463952
535.500000	74.511921
534.000000	74.518394
532.500000	74.503406
531.000000	74.514796
529.500000	74.508941
528.000000	74.499937
526.500000	74.510204
525.000000	74.495226
523.500000	74.459729
522.000000	74.411825
520.500000	74.354632
519.000000	74.261031
517.500000	74.151525
516.000000	74.014574
514.500000	73.821580
513.000000	73.589845
511.500000	73.353991
510.000000	73.095463
508.500000	72.843373
507.000000	72.624748
505.500000	72.426219
504.000000	72.253861
502.500000	72.149914
501.000000	72.126581
499.500000	72.104184
498.000000	72.125218
496.500000	72.176929
495.000000	72.273332
493.500000	72.377568
492.000000	72.494910
490.500000	72.637998
489.000000	72.827687
487.500000	72.940788
486.000000	73.150085
484.500000	73.365049
483.000000	73.700218
481.500000	74.118938
480.000000	74.296528
478.500000	74.078737
477.000000	73.867789
475.500000	73.779825
474.000000	73.635061
472.500000	73.530529
471.000000	73.412924
469.500000	73.218100
468.000000	72.965936
466.500000	72.755073
465.000000	72.456305
463.500000	72.208912
462.000000	72.025858
460.500000	71.861125
459.000000	71.741660
457.500000	71.624594
456.000000	71.622513
454.500000	71.599624
453.000000	71.607293
451.500000	71.563029
450.000000	71.608437
448.500000	71.621328
447.000000	71.590022
445.500000	71.669909
444.000000	71.909393
442.500000	72.089565
441.000000	71.990424
439.500000	71.914501
438.000000	71.865163
436.500000	71.776684
435.000000	71.725586
433.500000	71.640442
432.000000	71.623259
430.500000	71.592796
429.000000	71.499956
427.500000	71.487552
426.000000	71.397069
424.500000	71.364493
423.000000	71.255857
421.500000	71.262743
420.000000	71.176668
418.500000	71.115317
417.000000	71.115615
415.500000	70.989907
414.000000	70.935917
412.500000	70.830950
411.000000	70.787400
409.500000	70.657321
408.000000	70.646741
406.500000	70.619340
405.000000	70.528647
403.500000	70.432430
402.000000	70.380411
400.500000	70.246800
399.000000	70.191067
397.500000	70.106857
396.000000	70.061573
394.500000	69.849353
393.000000	69.797267
391.500000	69.730854
390.000000	69.554863
388.500000	69.498522
387.000000	69.244130
385.500000	69.067886
384.000000	68.896337
382.500000	68.695527
381.000000	68.511648
379.500000	68.259665
378.000000	68.086043
376.500000	68.735342
375.000000	68.938979
373.500000	67.891614
372.000000	67.183290
370.500000	66.091354
369.000000	64.939392
367.500000	63.641628
366.000000	62.012496
364.500000	60.267827
363.000000	58.069299
361.500000	55.412718
360.000000	52.376975
358.500000	49.006321
357.000000	44.896527
355.500000	40.192148
354.000000	34.997881
352.500000	29.709319
351.000000	24.193045
349.500000	18.867800
348.000000	13.874206
346.500000	9.545734
345.000000	6.049807
343.500000	3.441493
342.000000	1.756586
340.500000	0.760762
339.000000	0.280204
337.500000	0.100894
336.000000	0.044834
334.500000	0.043321
333.000000	0.041962
331.500000	0.031635
330.000000	0.037649
328.500000	0.033430
327.000000	0.036593
325.500000	0.051739
324.000000	0.043824
322.500000	0.034382
321.000000	0.034033
319.500000	0.037644
318.000000	0.010524
316.500000	-0.022046
315.000000	-0.020362
313.500000	-0.021409
312.000000	-0.020684
310.500000	-0.028406
309.000000	-0.011788
307.500000	-0.010403
306.000000	-0.001894
304.500000	-0.004549
303.000000	-0.007877
301.500000	-0.004464
300.000000	-0.005612
