PE UV       SUBTECH     SPECTRUM    ASCII       PEDS        4.00        
   -1
Sample122.Sample.Raw.asc
20/12/17
16:14:59.00
20/12/17
16:14:59.00
Administrator

300.000000
1
Lambda 850
850L1710193
PerkinElmer UV WinLab 6.4.0.973 / 2.02.06 Lambda 800 UV/VIS, Jan 28 2016 16:58:34

0
0
2
0
0
UV/VIS
1
1
1
RBeamAtt,SBeamAtt,60mm sphere
0
0
0
0
Fix
 
0
0.2
0
0
0
 
 
 
0
 
0
319.2
0
Front
100
 
S:100 R:100
 
0
0
0
 
0
 
 
 
0
 
 
0
0
0
0
0
 
 
 
 
0
0


0
0
#HDR
-1
-1
#GR
nm
%T
1.0
0.0
750.000000
-1.500000
301
8
75.960888
-0.022348
#DATA
750.000000	75.639537
748.500000	75.960888
747.000000	75.782964
745.500000	75.808699
744.000000	75.871466
742.500000	75.755163
741.000000	75.728474
739.500000	75.685216
738.000000	75.683000
736.500000	75.654125
735.000000	75.719605
733.500000	75.729091
732.000000	75.886737
730.500000	75.692321
729.000000	75.654623
727.500000	75.654808
726.000000	75.656146
724.500000	75.727994
723.000000	75.631654
721.500000	75.664658
720.000000	75.583408
718.500000	75.576155
717.000000	75.627167
715.500000	75.590110
714.000000	75.532055
712.500000	75.586403
711.000000	75.615816
709.500000	75.542443
708.000000	75.594683
706.500000	75.686695
705.000000	75.575521
703.500000	75.693080
702.000000	75.568825
700.500000	75.581898
699.000000	75.478051
697.500000	75.590416
696.000000	75.450285
694.500000	75.404026
693.000000	75.342634
691.500000	75.407024
690.000000	75.265523
688.500000	75.467832
687.000000	75.387348
685.500000	75.475499
684.000000	75.448003
682.500000	75.362508
681.000000	75.340558
679.500000	75.358779
678.000000	75.349827
676.500000	75.340131
675.000000	75.370896
673.500000	75.317014
672.000000	75.330323
670.500000	75.304048
669.000000	75.212552
667.500000	75.186268
666.000000	75.322444
664.500000	75.171037
663.000000	75.259199
661.500000	75.285262
660.000000	75.234469
658.500000	75.196232
657.000000	75.270033
655.500000	75.219566
654.000000	75.156444
652.500000	75.181276
651.000000	75.170038
649.500000	75.159366
648.000000	75.134805
646.500000	75.090837
645.000000	75.073782
643.500000	75.062805
642.000000	75.078547
640.500000	75.074113
639.000000	75.003107
637.500000	75.023830
636.000000	75.007471
634.500000	74.986800
633.000000	74.967206
631.500000	74.987584
630.000000	74.995263
628.500000	74.974621
627.000000	74.966954
625.500000	74.948265
624.000000	74.984811
622.500000	74.932246
621.000000	74.913757
619.500000	74.912109
618.000000	74.835205
616.500000	74.815019
615.000000	74.827035
613.500000	74.839388
612.000000	74.800568
610.500000	74.775745
609.000000	74.766299
607.500000	74.791539
606.000000	74.774968
604.500000	74.770704
603.000000	74.766278
601.500000	74.765191
600.000000	74.771212
598.500000	74.729928
597.000000	74.674855
595.500000	74.651163
594.000000	74.638972
592.500000	74.624050
591.000000	74.641000
589.500000	74.618306
588.000000	74.581854
586.500000	74.555982
585.000000	74.524180
583.500000	74.549392
582.000000	74.554664
580.500000	74.505693
579.000000	74.473173
577.500000	74.470550
576.000000	74.473157
574.500000	74.472343
573.000000	74.392370
571.500000	74.356547
570.000000	74.390760
568.500000	74.379396
567.000000	74.330368
565.500000	74.298568
564.000000	74.248340
562.500000	74.282366
561.000000	74.440725
559.500000	74.546333
558.000000	74.568795
556.500000	74.533050
555.000000	74.524910
553.500000	74.539195
552.000000	74.531392
550.500000	74.508574
549.000000	74.475451
547.500000	74.492772
546.000000	74.527802
544.500000	74.518723
543.000000	74.494562
541.500000	74.488809
540.000000	74.479184
538.500000	74.469577
537.000000	74.503150
535.500000	74.545349
534.000000	74.518972
532.500000	74.529235
531.000000	74.555728
529.500000	74.556318
528.000000	74.561839
526.500000	74.543552
525.000000	74.525939
523.500000	74.517532
522.000000	74.469470
520.500000	74.425505
519.000000	74.338839
517.500000	74.216612
516.000000	74.063474
514.500000	73.875440
513.000000	73.651961
511.500000	73.394955
510.000000	73.138813
508.500000	72.886391
507.000000	72.674115
505.500000	72.476328
504.000000	72.306872
502.500000	72.227311
501.000000	72.175829
499.500000	72.142938
498.000000	72.163571
496.500000	72.215401
495.000000	72.316813
493.500000	72.450006
492.000000	72.548984
490.500000	72.686564
489.000000	72.874577
487.500000	73.016734
486.000000	73.165065
484.500000	73.386878
483.000000	73.748004
481.500000	74.173554
480.000000	74.335489
478.500000	74.091351
477.000000	73.901605
475.500000	73.825581
474.000000	73.712930
472.500000	73.597889
471.000000	73.457160
469.500000	73.271831
468.000000	73.054422
466.500000	72.801666
465.000000	72.502355
463.500000	72.278897
462.000000	72.083590
460.500000	71.935931
459.000000	71.781091
457.500000	71.669252
456.000000	71.656808
454.500000	71.634427
453.000000	71.687729
451.500000	71.673833
450.000000	71.656082
448.500000	71.715296
447.000000	71.628298
445.500000	71.726784
444.000000	71.983960
442.500000	72.138435
441.000000	71.966089
439.500000	71.968830
438.000000	71.928320
436.500000	71.842298
435.000000	71.789068
433.500000	71.719743
432.000000	71.691248
430.500000	71.645784
429.000000	71.528924
427.500000	71.493281
426.000000	71.464026
424.500000	71.426016
423.000000	71.355791
421.500000	71.298749
420.000000	71.239927
418.500000	71.107618
417.000000	71.147334
415.500000	71.093365
414.000000	70.972627
412.500000	70.879208
411.000000	70.840403
409.500000	70.665273
408.000000	70.686129
406.500000	70.649042
405.000000	70.554710
403.500000	70.366881
402.000000	70.321480
400.500000	70.249590
399.000000	70.250430
397.500000	70.084555
396.000000	69.993550
394.500000	69.902351
393.000000	69.730509
391.500000	69.677827
390.000000	69.530667
388.500000	69.518672
387.000000	69.266979
385.500000	68.938921
384.000000	68.845581
382.500000	68.729615
381.000000	68.453912
379.500000	68.204329
378.000000	68.048392
376.500000	68.721647
375.000000	68.922009
373.500000	67.868295
372.000000	67.101013
370.500000	66.087351
369.000000	64.963269
367.500000	63.621748
366.000000	62.153088
364.500000	60.180704
363.000000	58.031135
361.500000	55.460564
360.000000	52.351842
358.500000	48.817620
357.000000	44.722743
355.500000	40.044842
354.000000	34.894600
352.500000	29.565058
351.000000	24.095115
349.500000	18.703916
348.000000	13.835544
346.500000	9.500844
345.000000	6.019103
343.500000	3.433189
342.000000	1.747259
340.500000	0.767964
339.000000	0.298538
337.500000	0.113760
336.000000	0.061786
334.500000	0.048597
333.000000	0.050669
331.500000	0.052787
330.000000	0.042101
328.500000	0.041973
327.000000	0.044116
325.500000	0.051925
324.000000	0.052664
322.500000	0.041184
321.000000	0.042332
319.500000	0.038203
318.000000	0.007987
316.500000	-0.018763
315.000000	-0.020831
313.500000	-0.022348
312.000000	-0.017863
310.500000	-0.009594
309.000000	-0.009148
307.500000	-0.008038
306.000000	0.001800
304.500000	0.007771
303.000000	-0.000949
301.500000	-0.003799
300.000000	-0.004281
