PE UV       SUBTECH     SPECTRUM    ASCII       PEDS        4.00        
   -1
Sample5.Sample.Raw.asc
20/12/09
14:53:27.00
20/12/09
14:53:27.00
Administrator

300.000000
1
Lambda 850
850L1710193
PerkinElmer UV WinLab 6.4.0.973 / 2.02.06 Lambda 800 UV/VIS, Jan 28 2016 16:58:34

0
0
2
0
0
UV/VIS
1
1
1
RBeamAtt,SBeamAtt,60mm sphere
0
0
0
0
Fix
 
0
0.2
0
0
0
 
 
 
0
 
0
319.2
0
Front
100
 
S:100 R:100
 
0
0
0
 
0
 
 
 
0
 
 
0
0
0
0
0
 
 
 
 
0
0


0
0
#HDR
-1
-1
#GR
nm
%T
1.0
0.0
750.000000
-1.500000
301
8
75.393378
-0.035288
#DATA
750.000000	75.075331
748.500000	75.393378
747.000000	75.355757
745.500000	75.264383
744.000000	75.270712
742.500000	75.216858
741.000000	75.336889
739.500000	75.324434
738.000000	75.271536
736.500000	75.087327
735.000000	75.267156
733.500000	75.133288
732.000000	75.138143
730.500000	75.004577
729.000000	74.957156
727.500000	75.015479
726.000000	75.016252
724.500000	75.014687
723.000000	75.020081
721.500000	75.002225
720.000000	74.900440
718.500000	74.856288
717.000000	74.812219
715.500000	74.701281
714.000000	74.719405
712.500000	74.600408
711.000000	74.740685
709.500000	74.611106
708.000000	74.611759
706.500000	74.601881
705.000000	74.693353
703.500000	74.638698
702.000000	74.583651
700.500000	74.654042
699.000000	74.636034
697.500000	74.592901
696.000000	74.663413
694.500000	74.652031
693.000000	74.643228
691.500000	74.647572
690.000000	74.572908
688.500000	74.706441
687.000000	74.686894
685.500000	74.676746
684.000000	74.686876
682.500000	74.728964
681.000000	74.675310
679.500000	74.653867
678.000000	74.631878
676.500000	74.656174
675.000000	74.631669
673.500000	74.639091
672.000000	74.590647
670.500000	74.719484
669.000000	74.704328
667.500000	74.619321
666.000000	74.689095
664.500000	74.719335
663.000000	74.699994
661.500000	74.663021
660.000000	74.685069
658.500000	74.677073
657.000000	74.770277
655.500000	74.815540
654.000000	74.794237
652.500000	74.775308
651.000000	74.760069
649.500000	74.704202
648.000000	74.733766
646.500000	74.763264
645.000000	74.771418
643.500000	74.709627
642.000000	74.733594
640.500000	74.720952
639.000000	74.677851
637.500000	74.635146
636.000000	74.662217
634.500000	74.633772
633.000000	74.650544
631.500000	74.646356
630.000000	74.608126
628.500000	74.565690
627.000000	74.642648
625.500000	74.677524
624.000000	74.640456
622.500000	74.587851
621.000000	74.601527
619.500000	74.578688
618.000000	74.545576
616.500000	74.540183
615.000000	74.532486
613.500000	74.585013
612.000000	74.510172
610.500000	74.493990
609.000000	74.490943
607.500000	74.454556
606.000000	74.459367
604.500000	74.410493
603.000000	74.378387
601.500000	74.385224
600.000000	74.366692
598.500000	74.329087
597.000000	74.340743
595.500000	74.333775
594.000000	74.311036
592.500000	74.306413
591.000000	74.280240
589.500000	74.268980
588.000000	74.246240
586.500000	74.200859
585.000000	74.157048
583.500000	74.135696
582.000000	74.110840
580.500000	74.112239
579.000000	74.102429
577.500000	74.069503
576.000000	74.024358
574.500000	74.007898
573.000000	73.982793
571.500000	73.963351
570.000000	73.949368
568.500000	73.866449
567.000000	73.856333
565.500000	73.838220
564.000000	73.739433
562.500000	73.709987
561.000000	73.840899
559.500000	73.986377
558.000000	73.961237
556.500000	73.963561
555.000000	73.981380
553.500000	73.932012
552.000000	73.931168
550.500000	73.916890
549.000000	73.934623
547.500000	73.956827
546.000000	73.939404
544.500000	73.939289
543.000000	73.946834
541.500000	73.952909
540.000000	73.939488
538.500000	73.937882
537.000000	73.991667
535.500000	74.026457
534.000000	74.017552
532.500000	74.007686
531.000000	74.037130
529.500000	74.060277
528.000000	74.054345
526.500000	74.057277
525.000000	74.070440
523.500000	74.032901
522.000000	73.988371
520.500000	73.935647
519.000000	73.846098
517.500000	73.719204
516.000000	73.559094
514.500000	73.358834
513.000000	73.138476
511.500000	72.886751
510.000000	72.637013
508.500000	72.385840
507.000000	72.140944
505.500000	71.941534
504.000000	71.787615
502.500000	71.680688
501.000000	71.630122
499.500000	71.611075
498.000000	71.615779
496.500000	71.684980
495.000000	71.723504
493.500000	71.819843
492.000000	71.986646
490.500000	72.116043
489.000000	72.189514
487.500000	72.358419
486.000000	72.533650
484.500000	72.728572
483.000000	73.079536
481.500000	73.468817
480.000000	73.660036
478.500000	73.498596
477.000000	73.231380
475.500000	73.121668
474.000000	73.058340
472.500000	72.883407
471.000000	72.744665
469.500000	72.575285
468.000000	72.349980
466.500000	72.078120
465.000000	71.815364
463.500000	71.565423
462.000000	71.327599
460.500000	71.196988
459.000000	71.082232
457.500000	70.997060
456.000000	70.963894
454.500000	70.891852
453.000000	70.873024
451.500000	70.899650
450.000000	70.893304
448.500000	70.874042
447.000000	70.800822
445.500000	70.792063
444.000000	71.072672
442.500000	71.231854
441.000000	71.237625
439.500000	71.143262
438.000000	71.087088
436.500000	70.974468
435.000000	70.904253
433.500000	70.848762
432.000000	70.835340
430.500000	70.776813
429.000000	70.733384
427.500000	70.656728
426.000000	70.559003
424.500000	70.468036
423.000000	70.519709
421.500000	70.420302
420.000000	70.337224
418.500000	70.258634
417.000000	70.190294
415.500000	70.223546
414.000000	70.077681
412.500000	69.963264
411.000000	69.893967
409.500000	69.815888
408.000000	69.733722
406.500000	69.617246
405.000000	69.602717
403.500000	69.489689
402.000000	69.466432
400.500000	69.355555
399.000000	69.250369
397.500000	69.143620
396.000000	69.073786
394.500000	68.907158
393.000000	68.818975
391.500000	68.569851
390.000000	68.466227
388.500000	68.385440
387.000000	68.185844
385.500000	67.937411
384.000000	67.733733
382.500000	67.397453
381.000000	67.057384
379.500000	66.638707
378.000000	66.120674
376.500000	66.558515
375.000000	66.336488
373.500000	65.279944
372.000000	63.784280
370.500000	62.293451
369.000000	60.242196
367.500000	58.129020
366.000000	55.421206
364.500000	52.217149
363.000000	48.606346
361.500000	44.318447
360.000000	39.500867
358.500000	34.254463
357.000000	28.618902
355.500000	22.906084
354.000000	17.378662
352.500000	12.421588
351.000000	8.172927
349.500000	4.918920
348.000000	2.647139
346.500000	1.251871
345.000000	0.515650
343.500000	0.200753
342.000000	0.094374
340.500000	0.063143
339.000000	0.055026
337.500000	0.060958
336.000000	0.063606
334.500000	0.066221
333.000000	0.057338
331.500000	0.070552
330.000000	0.075511
328.500000	0.062469
327.000000	0.070149
325.500000	0.072350
324.000000	0.072186
322.500000	0.062224
321.000000	0.061412
319.500000	0.059233
318.000000	0.003685
316.500000	-0.033574
315.000000	-0.035288
313.500000	-0.027517
312.000000	-0.023054
310.500000	-0.021010
309.000000	-0.009857
307.500000	-0.011019
306.000000	-0.003235
304.500000	0.006390
303.000000	0.001145
301.500000	-0.002483
300.000000	-0.004779
