PE UV       SUBTECH     SPECTRUM    ASCII       PEDS        4.00        
   -1
Sample226.Sample.Raw.asc
21/02/05
14:24:19.00
21/02/05
14:24:19.00
Administrator

300.000000
1
Lambda 850
850L1710193
PerkinElmer UV WinLab 6.4.0.973 / 2.02.06 Lambda 800 UV/VIS, Jan 28 2016 16:58:34

0
0
2
0
0
UV/VIS
1
1
1
RBeamAtt,SBeamAtt,60mm sphere
0
0
0
0
Fix
 
0
0.2
0
0
0
 
 
 
0
 
0
340
0
Front
100
 
S:100 R:100
 
0
0
0
 
0
 
 
 
0
 
 
0
0
0
0
0
 
 
 
 
0
0


0
0
#HDR
-1
-1
#GR
nm
%T
1.0
0.0
750.000000
-1.500000
301
8
75.082011
-0.040295
#DATA
750.000000	74.796883
748.500000	74.928535
747.000000	75.082011
745.500000	74.780116
744.000000	74.847808
742.500000	75.081563
741.000000	75.011826
739.500000	74.952041
738.000000	74.816195
736.500000	74.976400
735.000000	74.775442
733.500000	74.847806
732.000000	74.845174
730.500000	74.875083
729.000000	74.820314
727.500000	74.838190
726.000000	74.772418
724.500000	74.772877
723.000000	74.793043
721.500000	74.762185
720.000000	74.786705
718.500000	74.689514
717.000000	74.735809
715.500000	74.683537
714.000000	74.764103
712.500000	74.723104
711.000000	74.606678
709.500000	74.739515
708.000000	74.678903
706.500000	74.718520
705.000000	74.760034
703.500000	74.622936
702.000000	74.638897
700.500000	74.600744
699.000000	74.660344
697.500000	74.583707
696.000000	74.593963
694.500000	74.568875
693.000000	74.504960
691.500000	74.464226
690.000000	74.222321
688.500000	74.537587
687.000000	74.533234
685.500000	74.439402
684.000000	74.465162
682.500000	74.467634
681.000000	74.444110
679.500000	74.508984
678.000000	74.468321
676.500000	74.386418
675.000000	74.385580
673.500000	74.353513
672.000000	74.378525
670.500000	74.261749
669.000000	74.232184
667.500000	74.275082
666.000000	74.274489
664.500000	74.305606
663.000000	74.275389
661.500000	74.211451
660.000000	74.230818
658.500000	74.188655
657.000000	74.168056
655.500000	74.193403
654.000000	74.202578
652.500000	74.162787
651.000000	74.110739
649.500000	74.115749
648.000000	74.119041
646.500000	74.118073
645.000000	74.047105
643.500000	73.992273
642.000000	73.973126
640.500000	73.949616
639.000000	73.997179
637.500000	73.974578
636.000000	73.923488
634.500000	73.909316
633.000000	73.929227
631.500000	73.951766
630.000000	73.878476
628.500000	73.824356
627.000000	73.765894
625.500000	73.810055
624.000000	73.790712
622.500000	73.788831
621.000000	73.787997
619.500000	73.762080
618.000000	73.726080
616.500000	73.697364
615.000000	73.625616
613.500000	73.593617
612.000000	73.603268
610.500000	73.649875
609.000000	73.594953
607.500000	73.532931
606.000000	73.543727
604.500000	73.564000
603.000000	73.534504
601.500000	73.508704
600.000000	73.488863
598.500000	73.508619
597.000000	73.500490
595.500000	73.437009
594.000000	73.390230
592.500000	73.359328
591.000000	73.334978
589.500000	73.293639
588.000000	73.310154
586.500000	73.268730
585.000000	73.257814
583.500000	73.241234
582.000000	73.204141
580.500000	73.213609
579.000000	73.164390
577.500000	73.110449
576.000000	73.113418
574.500000	73.112839
573.000000	73.098243
571.500000	73.065133
570.000000	73.045263
568.500000	73.020796
567.000000	72.958800
565.500000	72.936636
564.000000	72.890575
562.500000	72.867767
561.000000	73.022008
559.500000	73.142851
558.000000	73.098182
556.500000	73.077149
555.000000	73.097372
553.500000	73.075047
552.000000	73.081474
550.500000	73.070963
549.000000	73.054010
547.500000	73.064075
546.000000	73.070010
544.500000	73.041694
543.000000	73.008956
541.500000	73.012506
540.000000	73.011291
538.500000	73.024814
537.000000	73.040021
535.500000	73.038960
534.000000	73.054908
532.500000	73.033216
531.000000	73.014725
529.500000	73.031781
528.000000	73.027279
526.500000	73.001853
525.000000	72.979542
523.500000	72.953404
522.000000	72.900999
520.500000	72.827058
519.000000	72.731531
517.500000	72.620584
516.000000	72.459784
514.500000	72.247807
513.000000	72.054171
511.500000	71.836308
510.000000	71.562123
508.500000	71.297697
507.000000	71.058150
505.500000	70.859841
504.000000	70.724472
502.500000	70.629070
501.000000	70.555388
499.500000	70.552756
498.000000	70.580877
496.500000	70.645338
495.000000	70.689131
493.500000	70.753604
492.000000	70.931948
490.500000	71.034593
489.000000	71.186959
487.500000	71.372380
486.000000	71.474766
484.500000	71.669149
483.000000	72.050641
481.500000	72.427669
480.000000	72.588187
478.500000	72.371160
477.000000	72.147751
475.500000	72.007128
474.000000	71.922484
472.500000	71.805763
471.000000	71.660545
469.500000	71.519545
468.000000	71.256830
466.500000	71.014848
465.000000	70.726048
463.500000	70.507845
462.000000	70.261315
460.500000	70.118347
459.000000	70.011557
457.500000	69.889227
456.000000	69.846168
454.500000	69.818918
453.000000	69.800492
451.500000	69.815820
450.000000	69.802795
448.500000	69.814212
447.000000	69.808646
445.500000	69.804891
444.000000	70.049133
442.500000	70.147838
441.000000	70.061705
439.500000	70.017176
438.000000	69.928904
436.500000	69.827317
435.000000	69.767379
433.500000	69.759332
432.000000	69.720880
430.500000	69.664867
429.000000	69.519424
427.500000	69.501933
426.000000	69.445684
424.500000	69.353155
423.000000	69.221482
421.500000	69.211393
420.000000	69.091031
418.500000	68.956923
417.000000	68.958452
415.500000	68.919239
414.000000	68.787787
412.500000	68.736101
411.000000	68.581136
409.500000	68.545608
408.000000	68.469918
406.500000	68.303596
405.000000	68.208605
403.500000	68.214581
402.000000	68.037559
400.500000	67.920524
399.000000	67.767215
397.500000	67.611197
396.000000	67.535679
394.500000	67.389158
393.000000	67.185210
391.500000	67.059098
390.000000	67.019427
388.500000	66.810414
387.000000	66.672743
385.500000	66.434387
384.000000	66.200446
382.500000	66.081357
381.000000	65.746164
379.500000	65.423212
378.000000	65.269661
376.500000	66.044036
375.000000	65.908480
373.500000	65.102882
372.000000	64.211683
370.500000	63.036128
369.000000	61.939809
367.500000	60.745349
366.000000	59.239477
364.500000	57.528010
363.000000	55.377120
361.500000	52.941462
360.000000	50.004393
358.500000	46.738037
357.000000	42.729612
355.500000	38.302927
354.000000	33.556250
352.500000	28.409326
351.000000	23.158456
349.500000	18.100456
348.000000	13.316142
346.500000	9.223199
345.000000	5.883819
343.500000	3.392722
342.000000	1.740381
340.500000	0.754553
339.000000	0.238334
337.500000	0.039335
336.000000	-0.001114
334.500000	-0.020798
333.000000	-0.011433
331.500000	-0.021216
330.000000	-0.020199
328.500000	-0.016669
327.000000	-0.013971
325.500000	-0.020340
324.000000	-0.019025
322.500000	-0.024734
321.000000	-0.023606
319.500000	-0.016831
318.000000	-0.006122
316.500000	-0.040295
315.000000	-0.036298
313.500000	-0.034434
312.000000	-0.032740
310.500000	-0.031560
309.000000	-0.022527
307.500000	-0.024479
306.000000	-0.015253
304.500000	-0.009779
303.000000	-0.008170
301.500000	-0.012455
300.000000	-0.018254
