PE UV       SUBTECH     SPECTRUM    ASCII       PEDS        4.00        
   -1
Sample51.Sample.Raw.asc
21/04/02
12:52:50.00
21/04/02
12:52:50.00
Administrator

300.000000
1
Lambda 850
850L1710193
PerkinElmer UV WinLab 6.4.0.973 / 2.02.06 Lambda 800 UV/VIS, Jan 28 2016 16:58:34

0
0
2
0
0
UV/VIS
1
1
1
RBeamAtt,SBeamAtt,60mm sphere
0
0
0
0
Fix
 
0
0.2
0
0
0
 
 
 
0
 
0
340
0
Front
100
 
S:100 R:100
 
0
0
0
 
0
 
 
 
0
 
 
0
0
0
0
0
 
 
 
 
0
0


0
0
#HDR
-1
-1
#GR
nm
%T
1.0
0.0
750.000000
-1.500000
301
8
74.547721
-0.039642
#DATA
750.000000	73.960404
748.500000	74.329670
747.000000	74.368272
745.500000	74.547721
744.000000	74.101284
742.500000	74.335807
741.000000	74.255084
739.500000	74.247288
738.000000	74.284215
736.500000	74.252378
735.000000	74.205513
733.500000	74.259569
732.000000	74.253013
730.500000	74.193838
729.000000	74.294040
727.500000	74.286336
726.000000	74.261190
724.500000	74.224689
723.000000	74.200200
721.500000	74.266449
720.000000	74.117882
718.500000	74.303381
717.000000	74.184841
715.500000	74.189085
714.000000	74.114353
712.500000	74.258425
711.000000	74.097207
709.500000	74.058581
708.000000	74.101921
706.500000	74.006471
705.000000	74.043756
703.500000	73.959911
702.000000	73.998186
700.500000	74.119913
699.000000	73.970853
697.500000	73.966015
696.000000	74.082848
694.500000	74.023154
693.000000	73.915185
691.500000	73.893605
690.000000	73.810175
688.500000	74.011917
687.000000	73.951674
685.500000	73.915035
684.000000	73.909896
682.500000	73.950821
681.000000	73.920085
679.500000	73.996282
678.000000	73.914707
676.500000	73.814258
675.000000	73.868634
673.500000	73.909633
672.000000	73.859365
670.500000	73.884819
669.000000	73.773384
667.500000	73.711154
666.000000	73.768862
664.500000	73.786969
663.000000	73.784420
661.500000	73.730838
660.000000	73.718831
658.500000	73.723826
657.000000	73.683384
655.500000	73.632269
654.000000	73.650805
652.500000	73.654523
651.000000	73.619312
649.500000	73.595344
648.000000	73.588823
646.500000	73.585781
645.000000	73.552366
643.500000	73.525884
642.000000	73.533392
640.500000	73.475957
639.000000	73.476303
637.500000	73.463441
636.000000	73.415305
634.500000	73.383524
633.000000	73.371147
631.500000	73.397949
630.000000	73.408008
628.500000	73.338600
627.000000	73.362897
625.500000	73.335893
624.000000	73.307538
622.500000	73.313388
621.000000	73.279073
619.500000	73.279392
618.000000	73.228490
616.500000	73.225397
615.000000	73.259906
613.500000	73.206877
612.000000	73.122286
610.500000	73.107399
609.000000	73.137201
607.500000	73.116361
606.000000	73.103507
604.500000	73.085660
603.000000	73.062606
601.500000	73.020445
600.000000	72.967551
598.500000	72.968613
597.000000	72.973491
595.500000	72.952969
594.000000	72.903800
592.500000	72.899781
591.000000	72.900790
589.500000	72.891041
588.000000	72.830236
586.500000	72.796856
585.000000	72.774612
583.500000	72.736883
582.000000	72.708287
580.500000	72.710822
579.000000	72.715666
577.500000	72.689264
576.000000	72.639103
574.500000	72.592799
573.000000	72.584873
571.500000	72.570876
570.000000	72.521576
568.500000	72.447535
567.000000	72.419709
565.500000	72.391735
564.000000	72.311811
562.500000	72.298549
561.000000	72.421776
559.500000	72.557792
558.000000	72.553281
556.500000	72.501052
555.000000	72.490861
553.500000	72.455071
552.000000	72.421492
550.500000	72.420275
549.000000	72.426496
547.500000	72.429438
546.000000	72.386300
544.500000	72.371509
543.000000	72.354278
541.500000	72.319111
540.000000	72.272906
538.500000	72.249797
537.000000	72.260860
535.500000	72.257690
534.000000	72.246614
532.500000	72.217912
531.000000	72.192799
529.500000	72.150240
528.000000	72.168354
526.500000	72.159224
525.000000	72.103411
523.500000	72.066411
522.000000	71.982752
520.500000	71.878934
519.000000	71.794603
517.500000	71.678807
516.000000	71.515836
514.500000	71.318425
513.000000	71.105448
511.500000	70.886839
510.000000	70.641227
508.500000	70.421771
507.000000	70.244148
505.500000	70.088119
504.000000	69.940310
502.500000	69.859616
501.000000	69.936563
499.500000	69.932916
498.000000	70.017712
496.500000	70.152372
495.000000	70.305529
493.500000	70.413035
492.000000	70.547910
490.500000	70.681088
489.000000	70.835276
487.500000	70.971645
486.000000	71.076497
484.500000	71.281090
483.000000	71.635332
481.500000	71.930999
480.000000	71.950242
478.500000	71.706039
477.000000	71.465853
475.500000	71.270021
474.000000	71.161480
472.500000	71.033414
471.000000	70.834669
469.500000	70.615638
468.000000	70.376704
466.500000	70.109182
465.000000	69.854515
463.500000	69.634268
462.000000	69.471181
460.500000	69.365121
459.000000	69.218648
457.500000	69.224101
456.000000	69.140832
454.500000	69.199762
453.000000	69.263790
451.500000	69.276991
450.000000	69.261878
448.500000	69.329855
447.000000	69.338576
445.500000	69.365906
444.000000	69.634130
442.500000	69.803747
441.000000	69.741607
439.500000	69.647455
438.000000	69.477310
436.500000	69.429628
435.000000	69.396720
433.500000	69.326282
432.000000	69.289828
430.500000	69.205265
429.000000	69.123299
427.500000	69.080598
426.000000	68.970551
424.500000	68.849929
423.000000	68.870985
421.500000	68.760487
420.000000	68.695384
418.500000	68.583760
417.000000	68.502191
415.500000	68.448065
414.000000	68.379906
412.500000	68.247829
411.000000	68.136013
409.500000	68.054624
408.000000	67.981378
406.500000	67.847215
405.000000	67.763915
403.500000	67.720155
402.000000	67.541744
400.500000	67.453340
399.000000	67.364267
397.500000	67.256197
396.000000	67.081341
394.500000	67.006891
393.000000	66.905447
391.500000	66.754986
390.000000	66.539776
388.500000	66.440017
387.000000	66.294910
385.500000	66.069074
384.000000	65.790756
382.500000	65.573931
381.000000	65.269401
379.500000	64.793136
378.000000	64.678705
376.500000	65.015988
375.000000	64.942073
373.500000	63.991280
372.000000	62.807765
370.500000	61.473103
369.000000	60.030143
367.500000	58.294234
366.000000	56.184063
364.500000	53.694701
363.000000	50.828472
361.500000	47.385788
360.000000	43.376473
358.500000	39.006289
357.000000	34.013660
355.500000	28.618886
354.000000	23.142858
352.500000	17.888815
351.000000	12.987789
349.500000	8.943011
348.000000	5.753135
346.500000	3.469501
345.000000	1.948360
343.500000	1.019249
342.000000	0.496402
340.500000	0.218226
339.000000	0.072808
337.500000	0.017165
336.000000	-0.007242
334.500000	-0.015901
333.000000	-0.010400
331.500000	-0.011647
330.000000	-0.015182
328.500000	-0.008758
327.000000	-0.001119
325.500000	-0.016623
324.000000	-0.021563
322.500000	-0.008772
321.000000	-0.000561
319.500000	-0.003367
318.000000	-0.016002
316.500000	-0.039642
315.000000	-0.035853
313.500000	-0.036024
312.000000	-0.033320
310.500000	-0.029503
309.000000	-0.026526
307.500000	-0.021177
306.000000	-0.009664
304.500000	-0.008836
303.000000	-0.010736
301.500000	-0.012735
300.000000	-0.016371
