PE UV       SUBTECH     SPECTRUM    ASCII       PEDS        4.00        
   -1
Sample63.Sample.Raw.asc
21/04/15
11:09:27.00
21/04/15
11:09:27.00
Administrator

300.000000
1
Lambda 850
850L1710193
PerkinElmer UV WinLab 6.4.0.973 / 2.02.06 Lambda 800 UV/VIS, Jan 28 2016 16:58:34

0
0
2
0
0
UV/VIS
1
1
1
RBeamAtt,SBeamAtt,60mm sphere
0
0
0
0
Fix
 
0
0.2
0
0
0
 
 
 
0
 
0
340
0
Front
100
 
S:100 R:100
 
0
0
0
 
0
 
 
 
0
 
 
0
0
0
0
0
 
 
 
 
0
0


0
0
#HDR
-1
-1
#GR
nm
%T
1.0
0.0
750.000000
-1.500000
301
8
74.077899
-0.045458
#DATA
750.000000	73.776952
748.500000	73.940586
747.000000	73.953200
745.500000	73.989595
744.000000	73.775810
742.500000	74.077899
741.000000	74.003219
739.500000	74.012525
738.000000	73.965009
736.500000	73.758962
735.000000	73.959655
733.500000	73.827081
732.000000	73.859201
730.500000	73.875723
729.000000	73.785653
727.500000	73.890615
726.000000	73.733995
724.500000	73.753937
723.000000	73.631629
721.500000	73.829694
720.000000	73.757958
718.500000	73.745321
717.000000	73.763100
715.500000	73.646438
714.000000	73.786461
712.500000	73.725674
711.000000	73.666982
709.500000	73.753025
708.000000	73.656045
706.500000	73.572122
705.000000	73.711996
703.500000	73.578891
702.000000	73.541254
700.500000	73.579088
699.000000	73.696756
697.500000	73.634045
696.000000	73.548610
694.500000	73.500800
693.000000	73.642680
691.500000	73.509700
690.000000	73.318587
688.500000	73.452068
687.000000	73.445795
685.500000	73.424171
684.000000	73.465949
682.500000	73.574108
681.000000	73.504633
679.500000	73.466354
678.000000	73.434751
676.500000	73.337764
675.000000	73.428471
673.500000	73.424746
672.000000	73.394868
670.500000	73.352278
669.000000	73.295972
667.500000	73.217840
666.000000	73.281982
664.500000	73.337439
663.000000	73.272579
661.500000	73.169319
660.000000	73.269565
658.500000	73.239242
657.000000	73.224221
655.500000	73.203130
654.000000	73.179203
652.500000	73.174663
651.000000	73.105513
649.500000	73.060605
648.000000	73.084563
646.500000	73.082846
645.000000	73.072547
643.500000	73.113441
642.000000	73.075584
640.500000	73.106141
639.000000	73.004416
637.500000	72.960865
636.000000	72.914287
634.500000	72.975513
633.000000	72.932169
631.500000	72.918053
630.000000	72.900783
628.500000	72.896827
627.000000	72.854047
625.500000	72.819188
624.000000	72.814556
622.500000	72.761549
621.000000	72.767052
619.500000	72.761038
618.000000	72.767054
616.500000	72.687069
615.000000	72.667210
613.500000	72.633872
612.000000	72.634917
610.500000	72.632289
609.000000	72.601682
607.500000	72.585158
606.000000	72.587183
604.500000	72.569748
603.000000	72.566500
601.500000	72.469230
600.000000	72.416698
598.500000	72.397171
597.000000	72.386058
595.500000	72.349708
594.000000	72.338967
592.500000	72.346255
591.000000	72.302169
589.500000	72.259805
588.000000	72.240176
586.500000	72.206250
585.000000	72.214606
583.500000	72.222043
582.000000	72.168868
580.500000	72.101200
579.000000	72.122785
577.500000	72.117532
576.000000	72.065921
574.500000	72.025530
573.000000	72.018122
571.500000	71.981613
570.000000	71.920579
568.500000	71.899837
567.000000	71.857924
565.500000	71.808464
564.000000	71.722133
562.500000	71.679035
561.000000	71.830558
559.500000	71.954744
558.000000	71.924264
556.500000	71.888127
555.000000	71.860990
553.500000	71.842739
552.000000	71.835389
550.500000	71.784938
549.000000	71.759565
547.500000	71.771642
546.000000	71.759027
544.500000	71.733420
543.000000	71.712330
541.500000	71.685273
540.000000	71.642367
538.500000	71.647647
537.000000	71.639552
535.500000	71.606746
534.000000	71.558748
532.500000	71.535816
531.000000	71.549909
529.500000	71.517184
528.000000	71.486974
526.500000	71.447260
525.000000	71.400300
523.500000	71.342642
522.000000	71.247306
520.500000	71.160813
519.000000	71.096183
517.500000	70.971364
516.000000	70.808209
514.500000	70.629766
513.000000	70.421234
511.500000	70.183040
510.000000	69.967148
508.500000	69.741529
507.000000	69.512015
505.500000	69.370124
504.000000	69.246317
502.500000	69.155674
501.000000	69.184913
499.500000	69.201617
498.000000	69.256126
496.500000	69.368490
495.000000	69.506767
493.500000	69.652512
492.000000	69.813962
490.500000	69.905697
489.000000	70.072341
487.500000	70.202318
486.000000	70.339304
484.500000	70.517612
483.000000	70.768688
481.500000	71.096050
480.000000	71.140351
478.500000	70.845554
477.000000	70.583823
475.500000	70.418251
474.000000	70.314224
472.500000	70.146748
471.000000	69.984166
469.500000	69.787138
468.000000	69.511736
466.500000	69.249877
465.000000	68.998220
463.500000	68.757831
462.000000	68.593910
460.500000	68.513228
459.000000	68.386879
457.500000	68.345517
456.000000	68.297630
454.500000	68.272436
453.000000	68.355639
451.500000	68.419234
450.000000	68.378646
448.500000	68.395697
447.000000	68.398867
445.500000	68.452118
444.000000	68.636879
442.500000	68.837826
441.000000	68.753098
439.500000	68.648591
438.000000	68.473439
436.500000	68.472706
435.000000	68.368593
433.500000	68.278140
432.000000	68.242258
430.500000	68.181577
429.000000	68.077796
427.500000	68.052584
426.000000	67.949349
424.500000	67.874746
423.000000	67.836283
421.500000	67.726532
420.000000	67.691675
418.500000	67.549581
417.000000	67.490885
415.500000	67.368977
414.000000	67.297380
412.500000	67.211428
411.000000	67.098132
409.500000	67.055414
408.000000	66.936817
406.500000	66.798640
405.000000	66.639861
403.500000	66.585675
402.000000	66.411111
400.500000	66.346021
399.000000	66.235193
397.500000	66.049905
396.000000	65.974557
394.500000	65.811210
393.000000	65.662055
391.500000	65.599999
390.000000	65.392483
388.500000	65.182505
387.000000	65.045259
385.500000	64.819885
384.000000	64.628760
382.500000	64.421146
381.000000	64.014762
379.500000	63.616622
378.000000	63.232857
376.500000	63.943056
375.000000	63.680426
373.500000	62.713107
372.000000	61.694349
370.500000	60.449589
369.000000	59.082791
367.500000	57.325540
366.000000	55.374990
364.500000	52.952025
363.000000	50.219156
361.500000	46.961205
360.000000	43.165797
358.500000	38.841547
357.000000	34.104391
355.500000	28.917554
354.000000	23.679367
352.500000	18.402252
351.000000	13.646042
349.500000	9.510466
348.000000	6.234211
346.500000	3.808474
345.000000	2.203724
343.500000	1.185464
342.000000	0.583316
340.500000	0.261405
339.000000	0.035906
337.500000	-0.028406
336.000000	-0.039419
334.500000	-0.045458
333.000000	-0.037131
331.500000	-0.037580
330.000000	-0.032718
328.500000	-0.032299
327.000000	-0.032743
325.500000	-0.037801
324.000000	-0.032736
322.500000	-0.021400
321.000000	-0.043317
319.500000	-0.030225
318.000000	-0.011377
316.500000	-0.038240
315.000000	-0.040225
313.500000	-0.043334
312.000000	-0.037586
310.500000	-0.033558
309.000000	-0.031419
307.500000	-0.028332
306.000000	-0.018277
304.500000	-0.010438
303.000000	-0.018931
301.500000	-0.016833
300.000000	-0.014662
