PE UV       SUBTECH     SPECTRUM    ASCII       PEDS        4.00        
   -1
Sample62.Sample.Raw.asc
21/04/15
11:06:17.00
21/04/15
11:06:17.00
Administrator

300.000000
1
Lambda 850
850L1710193
PerkinElmer UV WinLab 6.4.0.973 / 2.02.06 Lambda 800 UV/VIS, Jan 28 2016 16:58:34

0
0
2
0
0
UV/VIS
1
1
1
RBeamAtt,SBeamAtt,60mm sphere
0
0
0
0
Fix
 
0
0.2
0
0
0
 
 
 
0
 
0
340
0
Front
100
 
S:100 R:100
 
0
0
0
 
0
 
 
 
0
 
 
0
0
0
0
0
 
 
 
 
0
0


0
0
#HDR
-1
-1
#GR
nm
%T
1.0
0.0
750.000000
-1.500000
301
8
75.272478
-0.060802
#DATA
750.000000	74.995552
748.500000	75.272478
747.000000	75.085039
745.500000	75.110240
744.000000	74.930958
742.500000	75.208709
741.000000	75.241149
739.500000	75.141853
738.000000	75.015360
736.500000	75.023488
735.000000	75.090662
733.500000	74.897990
732.000000	74.942394
730.500000	75.061301
729.000000	74.933814
727.500000	75.058662
726.000000	74.994973
724.500000	75.033440
723.000000	75.011180
721.500000	75.097144
720.000000	74.996567
718.500000	74.952095
717.000000	74.999512
715.500000	74.860627
714.000000	74.989432
712.500000	74.856979
711.000000	74.877636
709.500000	74.820464
708.000000	74.819021
706.500000	74.849299
705.000000	74.844754
703.500000	74.855988
702.000000	74.758095
700.500000	74.761084
699.000000	74.862413
697.500000	74.765595
696.000000	74.720630
694.500000	74.694152
693.000000	74.708312
691.500000	74.715645
690.000000	74.526539
688.500000	74.714830
687.000000	74.551085
685.500000	74.597809
684.000000	74.668325
682.500000	74.754176
681.000000	74.667494
679.500000	74.654576
678.000000	74.564590
676.500000	74.558405
675.000000	74.574869
673.500000	74.553644
672.000000	74.519502
670.500000	74.501498
669.000000	74.568093
667.500000	74.535280
666.000000	74.510254
664.500000	74.478523
663.000000	74.437343
661.500000	74.400372
660.000000	74.430772
658.500000	74.427048
657.000000	74.391275
655.500000	74.400153
654.000000	74.378338
652.500000	74.417283
651.000000	74.418601
649.500000	74.310035
648.000000	74.306792
646.500000	74.312878
645.000000	74.271480
643.500000	74.291023
642.000000	74.237899
640.500000	74.325247
639.000000	74.330058
637.500000	74.230928
636.000000	74.186427
634.500000	74.244702
633.000000	74.137886
631.500000	74.133181
630.000000	74.145871
628.500000	74.140523
627.000000	74.122368
625.500000	74.048050
624.000000	74.044463
622.500000	74.065082
621.000000	74.038630
619.500000	73.979824
618.000000	73.981217
616.500000	73.928247
615.000000	73.934844
613.500000	73.906999
612.000000	73.923725
610.500000	73.898297
609.000000	73.878827
607.500000	73.898890
606.000000	73.862603
604.500000	73.807227
603.000000	73.824333
601.500000	73.797007
600.000000	73.776444
598.500000	73.739319
597.000000	73.724311
595.500000	73.704523
594.000000	73.645909
592.500000	73.665659
591.000000	73.647464
589.500000	73.615008
588.000000	73.588688
586.500000	73.569828
585.000000	73.582056
583.500000	73.577746
582.000000	73.520919
580.500000	73.501648
579.000000	73.545367
577.500000	73.519313
576.000000	73.458600
574.500000	73.415050
573.000000	73.437850
571.500000	73.439413
570.000000	73.372160
568.500000	73.360291
567.000000	73.311064
565.500000	73.236807
564.000000	73.165692
562.500000	73.143167
561.000000	73.295342
559.500000	73.435525
558.000000	73.443351
556.500000	73.401587
555.000000	73.388203
553.500000	73.383785
552.000000	73.373525
550.500000	73.376038
549.000000	73.396430
547.500000	73.384830
546.000000	73.365806
544.500000	73.379314
543.000000	73.364989
541.500000	73.365113
540.000000	73.358554
538.500000	73.353249
537.000000	73.366274
535.500000	73.390422
534.000000	73.372794
532.500000	73.356742
531.000000	73.375148
529.500000	73.373331
528.000000	73.380998
526.500000	73.351932
525.000000	73.320647
523.500000	73.303597
522.000000	73.241811
520.500000	73.160915
519.000000	73.089453
517.500000	72.996032
516.000000	72.845776
514.500000	72.664561
513.000000	72.437384
511.500000	72.190783
510.000000	71.965279
508.500000	71.702490
507.000000	71.440026
505.500000	71.277523
504.000000	71.140623
502.500000	70.995072
501.000000	70.956191
499.500000	70.943529
498.000000	70.981505
496.500000	71.040882
495.000000	71.064655
493.500000	71.183481
492.000000	71.305686
490.500000	71.366172
489.000000	71.561488
487.500000	71.672842
486.000000	71.875789
484.500000	72.105101
483.000000	72.404556
481.500000	72.813492
480.000000	72.956140
478.500000	72.758246
477.000000	72.536582
475.500000	72.425210
474.000000	72.317954
472.500000	72.225127
471.000000	72.088945
469.500000	71.917089
468.000000	71.634966
466.500000	71.364912
465.000000	71.150558
463.500000	70.900722
462.000000	70.695291
460.500000	70.583636
459.000000	70.434934
457.500000	70.334091
456.000000	70.265096
454.500000	70.234363
453.000000	70.239316
451.500000	70.271004
450.000000	70.180846
448.500000	70.124198
447.000000	70.109257
445.500000	70.123067
444.000000	70.359758
442.500000	70.631008
441.000000	70.516517
439.500000	70.417677
438.000000	70.265989
436.500000	70.226441
435.000000	70.203770
433.500000	70.116193
432.000000	70.067494
430.500000	70.030222
429.000000	69.948397
427.500000	69.910982
426.000000	69.865061
424.500000	69.751587
423.000000	69.713119
421.500000	69.647737
420.000000	69.608739
418.500000	69.461933
417.000000	69.475202
415.500000	69.359188
414.000000	69.310535
412.500000	69.251085
411.000000	69.141623
409.500000	69.016845
408.000000	68.955568
406.500000	68.879505
405.000000	68.784427
403.500000	68.707580
402.000000	68.614875
400.500000	68.558824
399.000000	68.538566
397.500000	68.290042
396.000000	68.297021
394.500000	68.183152
393.000000	68.061250
391.500000	67.962822
390.000000	67.842738
388.500000	67.692054
387.000000	67.516491
385.500000	67.436639
384.000000	67.230742
382.500000	67.028160
381.000000	66.713643
379.500000	66.381795
378.000000	66.282755
376.500000	67.022351
375.000000	66.956795
373.500000	66.329122
372.000000	65.538855
370.500000	64.383079
369.000000	63.162328
367.500000	62.069775
366.000000	60.509077
364.500000	58.504326
363.000000	56.370698
361.500000	53.737701
360.000000	50.473785
358.500000	46.933364
357.000000	42.810621
355.500000	38.028358
354.000000	32.951097
352.500000	27.521516
351.000000	22.068981
349.500000	16.852276
348.000000	12.104520
346.500000	8.063858
345.000000	4.908278
343.500000	2.656989
342.000000	1.262296
340.500000	0.514389
339.000000	0.150974
337.500000	0.012439
336.000000	-0.060802
334.500000	-0.025099
333.000000	-0.039271
331.500000	-0.027534
330.000000	-0.033744
328.500000	-0.035277
327.000000	-0.029758
325.500000	-0.037708
324.000000	-0.037959
322.500000	-0.036258
321.000000	-0.039582
319.500000	-0.037244
318.000000	0.002539
316.500000	-0.022738
315.000000	-0.033270
313.500000	-0.034498
312.000000	-0.036455
310.500000	-0.026677
309.000000	-0.023210
307.500000	-0.016810
306.000000	-0.011459
304.500000	-0.008540
303.000000	-0.005137
301.500000	-0.009605
300.000000	-0.010759
