PE UV       SUBTECH     SPECTRUM    ASCII       PEDS        4.00        
   -1
Sample72.Sample.Raw.asc
21/04/16
12:29:23.00
21/04/16
12:29:23.00
Administrator

300.000000
1
Lambda 850
850L1710193
PerkinElmer UV WinLab 6.4.0.973 / 2.02.06 Lambda 800 UV/VIS, Jan 28 2016 16:58:34

0
0
2
0
0
UV/VIS
1
1
1
RBeamAtt,SBeamAtt,60mm sphere
0
0
0
0
Fix
 
0
0.2
0
0
0
 
 
 
0
 
0
340
0
Front
100
 
S:100 R:100
 
0
0
0
 
0
 
 
 
0
 
 
0
0
0
0
0
 
 
 
 
0
0


0
0
#HDR
-1
-1
#GR
nm
%T
1.0
0.0
750.000000
-1.500000
301
8
75.039836
-0.040225
#DATA
750.000000	74.728320
748.500000	74.944372
747.000000	74.961249
745.500000	74.902458
744.000000	74.852531
742.500000	75.039836
741.000000	74.928648
739.500000	74.879316
738.000000	74.988523
736.500000	74.811060
735.000000	74.952238
733.500000	74.738702
732.000000	74.889645
730.500000	74.939046
729.000000	74.974100
727.500000	74.877721
726.000000	74.767666
724.500000	74.887713
723.000000	74.914477
721.500000	74.884443
720.000000	74.816222
718.500000	74.764671
717.000000	74.729971
715.500000	74.726937
714.000000	74.628934
712.500000	74.568976
711.000000	74.687664
709.500000	74.743478
708.000000	74.780760
706.500000	74.754699
705.000000	74.631644
703.500000	74.678274
702.000000	74.542101
700.500000	74.623518
699.000000	74.514728
697.500000	74.521618
696.000000	74.547722
694.500000	74.617004
693.000000	74.534658
691.500000	74.526108
690.000000	74.360452
688.500000	74.466964
687.000000	74.532762
685.500000	74.551257
684.000000	74.527979
682.500000	74.517784
681.000000	74.414207
679.500000	74.475025
678.000000	74.441560
676.500000	74.370999
675.000000	74.289635
673.500000	74.336396
672.000000	74.418125
670.500000	74.332470
669.000000	74.335589
667.500000	74.256658
666.000000	74.306982
664.500000	74.318158
663.000000	74.314448
661.500000	74.235606
660.000000	74.234277
658.500000	74.227008
657.000000	74.225437
655.500000	74.136683
654.000000	74.099543
652.500000	74.081726
651.000000	74.087501
649.500000	74.035024
648.000000	74.111899
646.500000	74.106321
645.000000	74.052516
643.500000	74.017470
642.000000	74.032335
640.500000	74.041161
639.000000	74.040588
637.500000	73.942084
636.000000	73.893418
634.500000	73.923748
633.000000	73.931081
631.500000	73.862285
630.000000	73.878421
628.500000	73.853031
627.000000	73.834171
625.500000	73.827230
624.000000	73.793985
622.500000	73.751827
621.000000	73.728207
619.500000	73.700487
618.000000	73.681446
616.500000	73.674249
615.000000	73.660379
613.500000	73.642081
612.000000	73.640826
610.500000	73.650557
609.000000	73.588014
607.500000	73.611633
606.000000	73.561034
604.500000	73.517154
603.000000	73.448008
601.500000	73.441817
600.000000	73.455295
598.500000	73.433856
597.000000	73.415901
595.500000	73.427345
594.000000	73.431063
592.500000	73.421071
591.000000	73.355153
589.500000	73.330206
588.000000	73.330107
586.500000	73.257521
585.000000	73.198896
583.500000	73.184990
582.000000	73.206081
580.500000	73.206571
579.000000	73.177908
577.500000	73.167638
576.000000	73.170587
574.500000	73.147792
573.000000	73.071304
571.500000	73.003820
570.000000	73.018106
568.500000	72.992790
567.000000	72.943601
565.500000	72.928997
564.000000	72.865375
562.500000	72.848298
561.000000	73.006302
559.500000	73.148222
558.000000	73.112619
556.500000	73.099493
555.000000	73.104010
553.500000	73.094419
552.000000	73.065688
550.500000	73.030406
549.000000	73.028423
547.500000	73.031684
546.000000	73.034683
544.500000	73.015637
543.000000	73.008107
541.500000	73.019054
540.000000	72.973711
538.500000	72.966936
537.000000	73.028644
535.500000	73.005441
534.000000	72.989373
532.500000	73.006270
531.000000	72.989403
529.500000	72.974060
528.000000	72.976918
526.500000	72.970456
525.000000	72.954767
523.500000	72.934422
522.000000	72.877190
520.500000	72.803962
519.000000	72.693399
517.500000	72.584381
516.000000	72.454696
514.500000	72.240989
513.000000	72.018391
511.500000	71.818421
510.000000	71.578946
508.500000	71.320261
507.000000	71.090697
505.500000	70.890875
504.000000	70.725686
502.500000	70.624387
501.000000	70.586694
499.500000	70.597399
498.000000	70.634484
496.500000	70.670392
495.000000	70.734561
493.500000	70.804075
492.000000	70.935174
490.500000	71.085669
489.000000	71.230900
487.500000	71.326988
486.000000	71.497576
484.500000	71.729842
483.000000	72.090038
481.500000	72.483526
480.000000	72.605384
478.500000	72.382140
477.000000	72.172137
475.500000	72.008186
474.000000	71.897220
472.500000	71.785941
471.000000	71.666171
469.500000	71.462389
468.000000	71.253835
466.500000	71.004060
465.000000	70.741431
463.500000	70.491222
462.000000	70.270309
460.500000	70.145468
459.000000	70.022633
457.500000	69.942600
456.000000	69.889380
454.500000	69.847735
453.000000	69.846766
451.500000	69.820703
450.000000	69.806345
448.500000	69.776576
447.000000	69.776106
445.500000	69.747707
444.000000	70.009521
442.500000	70.133439
441.000000	70.035831
439.500000	69.980830
438.000000	69.929645
436.500000	69.839132
435.000000	69.784204
433.500000	69.650798
432.000000	69.581706
430.500000	69.557849
429.000000	69.465464
427.500000	69.327194
426.000000	69.393835
424.500000	69.356678
423.000000	69.248864
421.500000	69.183780
420.000000	69.134182
418.500000	68.967043
417.000000	68.936743
415.500000	68.890173
414.000000	68.797580
412.500000	68.673441
411.000000	68.586904
409.500000	68.366687
408.000000	68.303279
406.500000	68.202148
405.000000	68.045609
403.500000	68.056049
402.000000	67.895407
400.500000	67.829846
399.000000	67.655348
397.500000	67.620352
396.000000	67.427034
394.500000	67.350686
393.000000	67.242388
391.500000	66.969580
390.000000	66.935246
388.500000	66.818544
387.000000	66.515903
385.500000	66.438979
384.000000	66.164956
382.500000	65.911024
381.000000	65.685666
379.500000	65.426302
378.000000	65.299800
376.500000	65.830198
375.000000	65.933576
373.500000	65.080971
372.000000	64.159370
370.500000	63.142598
369.000000	62.118915
367.500000	60.802465
366.000000	59.395037
364.500000	57.684026
363.000000	55.688563
361.500000	53.067671
360.000000	50.234793
358.500000	46.964332
357.000000	43.024338
355.500000	38.680461
354.000000	33.815043
352.500000	28.782463
351.000000	23.580254
349.500000	18.469342
348.000000	13.663813
346.500000	9.467086
345.000000	6.060600
343.500000	3.498290
342.000000	1.788731
340.500000	0.796713
339.000000	0.277003
337.500000	0.063326
336.000000	-0.014861
334.500000	-0.010967
333.000000	-0.017030
331.500000	-0.020774
330.000000	-0.013311
328.500000	-0.010528
327.000000	-0.016881
325.500000	-0.019860
324.000000	-0.012064
322.500000	-0.012884
321.000000	-0.017661
319.500000	-0.012813
318.000000	-0.002917
316.500000	-0.027425
315.000000	-0.035879
313.500000	-0.040225
312.000000	-0.030308
310.500000	-0.026192
309.000000	-0.021140
307.500000	-0.018424
306.000000	-0.010796
304.500000	-0.007025
303.000000	-0.008369
301.500000	-0.015293
300.000000	-0.012851
