PE UV       SUBTECH     SPECTRUM    ASCII       PEDS        4.00        
   -1
Sample71.Sample.Raw.asc
21/04/16
12:26:33.00
21/04/16
12:26:33.00
Administrator

300.000000
1
Lambda 850
850L1710193
PerkinElmer UV WinLab 6.4.0.973 / 2.02.06 Lambda 800 UV/VIS, Jan 28 2016 16:58:34

0
0
2
0
0
UV/VIS
1
1
1
RBeamAtt,SBeamAtt,60mm sphere
0
0
0
0
Fix
 
0
0.2
0
0
0
 
 
 
0
 
0
340
0
Front
100
 
S:100 R:100
 
0
0
0
 
0
 
 
 
0
 
 
0
0
0
0
0
 
 
 
 
0
0


0
0
#HDR
-1
-1
#GR
nm
%T
1.0
0.0
750.000000
-1.500000
301
8
75.726919
-0.032779
#DATA
750.000000	75.486226
748.500000	75.622138
747.000000	75.638981
745.500000	75.706173
744.000000	75.701049
742.500000	75.696597
741.000000	75.726919
739.500000	75.710008
738.000000	75.687348
736.500000	75.541759
735.000000	75.594988
733.500000	75.557232
732.000000	75.722357
730.500000	75.666523
729.000000	75.652892
727.500000	75.651356
726.000000	75.650199
724.500000	75.648797
723.000000	75.568057
721.500000	75.667043
720.000000	75.587817
718.500000	75.531995
717.000000	75.507805
715.500000	75.547246
714.000000	75.484579
712.500000	75.424966
711.000000	75.459292
709.500000	75.424007
708.000000	75.512742
706.500000	75.511624
705.000000	75.387154
703.500000	75.462100
702.000000	75.370494
700.500000	75.487231
699.000000	75.361782
697.500000	75.310285
696.000000	75.352833
694.500000	75.432245
693.000000	75.399966
691.500000	75.301824
690.000000	75.199588
688.500000	75.446454
687.000000	75.397446
685.500000	75.445180
684.000000	75.371187
682.500000	75.218184
681.000000	75.255236
679.500000	75.361261
678.000000	75.286928
676.500000	75.303603
675.000000	75.238401
673.500000	75.169320
672.000000	75.329107
670.500000	75.210116
669.000000	75.200019
667.500000	75.237190
666.000000	75.286370
664.500000	75.249929
663.000000	75.161067
661.500000	75.105890
660.000000	75.107817
658.500000	75.081953
657.000000	75.111403
655.500000	75.005565
654.000000	75.061099
652.500000	75.106178
651.000000	75.043024
649.500000	75.044178
648.000000	75.056282
646.500000	75.025040
645.000000	75.012221
643.500000	74.977573
642.000000	74.962874
640.500000	74.966548
639.000000	75.004449
637.500000	74.935949
636.000000	74.949454
634.500000	75.003254
633.000000	74.936003
631.500000	74.912547
630.000000	74.877888
628.500000	74.876707
627.000000	74.903636
625.500000	74.864837
624.000000	74.831852
622.500000	74.832168
621.000000	74.810267
619.500000	74.751406
618.000000	74.738054
616.500000	74.733695
615.000000	74.703763
613.500000	74.705381
612.000000	74.704463
610.500000	74.771204
609.000000	74.728294
607.500000	74.693361
606.000000	74.658969
604.500000	74.592587
603.000000	74.594946
601.500000	74.580957
600.000000	74.611508
598.500000	74.587040
597.000000	74.538340
595.500000	74.568340
594.000000	74.598406
592.500000	74.547970
591.000000	74.516571
589.500000	74.544474
588.000000	74.548885
586.500000	74.472889
585.000000	74.468190
583.500000	74.462906
582.000000	74.413595
580.500000	74.439521
579.000000	74.458493
577.500000	74.424639
576.000000	74.440691
574.500000	74.429280
573.000000	74.380709
571.500000	74.336450
570.000000	74.291586
568.500000	74.268362
567.000000	74.228631
565.500000	74.202363
564.000000	74.159315
562.500000	74.154262
561.000000	74.317020
559.500000	74.500287
558.000000	74.480589
556.500000	74.430742
555.000000	74.456690
553.500000	74.434784
552.000000	74.413518
550.500000	74.407000
549.000000	74.400637
547.500000	74.377152
546.000000	74.370972
544.500000	74.381994
543.000000	74.385443
541.500000	74.396411
540.000000	74.373648
538.500000	74.390902
537.000000	74.434611
535.500000	74.417852
534.000000	74.393535
532.500000	74.435166
531.000000	74.457953
529.500000	74.422074
528.000000	74.410731
526.500000	74.417447
525.000000	74.404489
523.500000	74.378057
522.000000	74.343442
520.500000	74.282006
519.000000	74.205480
517.500000	74.105442
516.000000	73.956057
514.500000	73.753409
513.000000	73.549525
511.500000	73.343645
510.000000	73.129818
508.500000	72.858085
507.000000	72.644150
505.500000	72.420127
504.000000	72.269552
502.500000	72.191219
501.000000	72.115846
499.500000	72.103612
498.000000	72.163667
496.500000	72.225373
495.000000	72.275868
493.500000	72.403103
492.000000	72.518860
490.500000	72.694827
489.000000	72.802992
487.500000	72.933974
486.000000	73.104529
484.500000	73.338320
483.000000	73.683292
481.500000	74.125217
480.000000	74.275036
478.500000	74.055025
477.000000	73.854991
475.500000	73.704202
474.000000	73.574015
472.500000	73.488061
471.000000	73.369200
469.500000	73.161955
468.000000	72.939249
466.500000	72.715021
465.000000	72.458836
463.500000	72.187085
462.000000	72.033002
460.500000	71.849786
459.000000	71.739158
457.500000	71.636890
456.000000	71.618341
454.500000	71.557789
453.000000	71.558442
451.500000	71.539600
450.000000	71.587196
448.500000	71.550698
447.000000	71.549432
445.500000	71.567493
444.000000	71.789330
442.500000	71.982881
441.000000	71.877999
439.500000	71.816068
438.000000	71.740083
436.500000	71.682495
435.000000	71.610562
433.500000	71.620154
432.000000	71.509265
430.500000	71.430027
429.000000	71.427367
427.500000	71.316122
426.000000	71.357139
424.500000	71.299045
423.000000	71.251633
421.500000	71.189879
420.000000	71.172333
418.500000	71.059195
417.000000	70.975977
415.500000	70.939097
414.000000	70.855905
412.500000	70.760418
411.000000	70.738646
409.500000	70.516814
408.000000	70.507854
406.500000	70.417037
405.000000	70.400178
403.500000	70.278304
402.000000	70.248468
400.500000	70.152070
399.000000	70.027201
397.500000	70.019258
396.000000	69.871596
394.500000	69.799612
393.000000	69.725033
391.500000	69.532920
390.000000	69.423962
388.500000	69.339385
387.000000	69.177083
385.500000	69.055703
384.000000	68.862306
382.500000	68.708716
381.000000	68.436838
379.500000	68.182808
378.000000	68.149137
376.500000	68.662134
375.000000	68.741047
373.500000	68.011963
372.000000	67.117096
370.500000	66.049914
369.000000	65.078468
367.500000	63.678069
366.000000	62.282149
364.500000	60.439200
363.000000	58.320592
361.500000	55.785603
360.000000	52.837389
358.500000	49.320091
357.000000	45.234936
355.500000	40.707152
354.000000	35.547287
352.500000	30.176740
351.000000	24.675987
349.500000	19.301432
348.000000	14.321924
346.500000	9.872951
345.000000	6.301458
343.500000	3.641428
342.000000	1.837426
340.500000	0.793658
339.000000	0.287789
337.500000	0.064718
336.000000	-0.014953
334.500000	-0.008736
333.000000	-0.017309
331.500000	-0.020867
330.000000	-0.014986
328.500000	-0.025622
327.000000	-0.021544
325.500000	-0.022937
324.000000	-0.017395
322.500000	-0.016526
321.000000	-0.010279
319.500000	-0.011130
318.000000	0.001599
316.500000	-0.032779
315.000000	-0.032779
313.500000	-0.023778
312.000000	-0.023907
310.500000	-0.024025
309.000000	-0.027275
307.500000	-0.022298
306.000000	-0.012879
304.500000	-0.004367
303.000000	-0.010271
301.500000	-0.016148
300.000000	-0.015993
