PE UV       SUBTECH     SPECTRUM    ASCII       PEDS        4.00        
   -1
Sample273.Sample.Raw.asc
21/02/15
14:08:11.00
21/02/15
14:08:11.00
Administrator

300.000000
1
Lambda 850
850L1710193
PerkinElmer UV WinLab 6.4.0.973 / 2.02.06 Lambda 800 UV/VIS, Jan 28 2016 16:58:34

0
0
2
0
0
UV/VIS
1
1
1
RBeamAtt,SBeamAtt,60mm sphere
0
0
0
0
Fix
 
0
0.2
0
0
0
 
 
 
0
 
0
319.2
0
Front
100
 
S:100 R:100
 
0
0
0
 
0
 
 
 
0
 
 
0
0
0
0
0
 
 
 
 
0
0


0
0
#HDR
-1
-1
#GR
nm
%T
1.0
0.0
750.000000
-1.500000
301
8
72.805977
-0.027750
#DATA
750.000000	72.396437
748.500000	72.706085
747.000000	72.805977
745.500000	72.737486
744.000000	72.673219
742.500000	72.682627
741.000000	72.638173
739.500000	72.620155
738.000000	72.620086
736.500000	72.588579
735.000000	72.604598
733.500000	72.537933
732.000000	72.532768
730.500000	72.469615
729.000000	72.500073
727.500000	72.495079
726.000000	72.418006
724.500000	72.354738
723.000000	72.301419
721.500000	72.356361
720.000000	72.387937
718.500000	72.260542
717.000000	72.256662
715.500000	72.127059
714.000000	72.168893
712.500000	72.164098
711.000000	72.135403
709.500000	72.090178
708.000000	71.984306
706.500000	72.102817
705.000000	72.033864
703.500000	71.946759
702.000000	71.922648
700.500000	71.885213
699.000000	71.958820
697.500000	71.831077
696.000000	71.832753
694.500000	71.956743
693.000000	71.814368
691.500000	71.776384
690.000000	71.555784
688.500000	71.846734
687.000000	71.690160
685.500000	71.664167
684.000000	71.712902
682.500000	71.657688
681.000000	71.482452
679.500000	71.419878
678.000000	71.439349
676.500000	71.348463
675.000000	71.301874
673.500000	71.324520
672.000000	71.343676
670.500000	71.268708
669.000000	71.213996
667.500000	71.118170
666.000000	71.070399
664.500000	70.996718
663.000000	70.928848
661.500000	70.825856
660.000000	70.790846
658.500000	70.754001
657.000000	70.694241
655.500000	70.598089
654.000000	70.536929
652.500000	70.466973
651.000000	70.367872
649.500000	70.341051
648.000000	70.247890
646.500000	70.147190
645.000000	70.056882
643.500000	70.030250
642.000000	69.927446
640.500000	69.761150
639.000000	69.744452
637.500000	69.634780
636.000000	69.579740
634.500000	69.454648
633.000000	69.343746
631.500000	69.247175
630.000000	69.148961
628.500000	69.080818
627.000000	68.970535
625.500000	68.845815
624.000000	68.807682
622.500000	68.720554
621.000000	68.566697
619.500000	68.497965
618.000000	68.355817
616.500000	68.221097
615.000000	68.098533
613.500000	67.990384
612.000000	67.918937
610.500000	67.813893
609.000000	67.683224
607.500000	67.547689
606.000000	67.477666
604.500000	67.370666
603.000000	67.259074
601.500000	67.153968
600.000000	67.040258
598.500000	66.911729
597.000000	66.760968
595.500000	66.634666
594.000000	66.545589
592.500000	66.455771
591.000000	66.332961
589.500000	66.221100
588.000000	66.098845
586.500000	65.998724
585.000000	65.886954
583.500000	65.761490
582.000000	65.677812
580.500000	65.556344
579.000000	65.425614
577.500000	65.333773
576.000000	65.231668
574.500000	65.096191
573.000000	65.004787
571.500000	64.932443
570.000000	64.816452
568.500000	64.714752
567.000000	64.626216
565.500000	64.508228
564.000000	64.383294
562.500000	64.271970
561.000000	64.289188
559.500000	64.294867
558.000000	64.185122
556.500000	64.126671
555.000000	64.052466
553.500000	63.978752
552.000000	63.913537
550.500000	63.824477
549.000000	63.757646
547.500000	63.710776
546.000000	63.647506
544.500000	63.580123
543.000000	63.555159
541.500000	63.478703
540.000000	63.382474
538.500000	63.347238
537.000000	63.315388
535.500000	63.298800
534.000000	63.240417
532.500000	63.188594
531.000000	63.147017
529.500000	63.078776
528.000000	63.026503
526.500000	63.010919
525.000000	62.951932
523.500000	62.856381
522.000000	62.783802
520.500000	62.688504
519.000000	62.542861
517.500000	62.394128
516.000000	62.213118
514.500000	61.984009
513.000000	61.736230
511.500000	61.466319
510.000000	61.188797
508.500000	60.906548
507.000000	60.629639
505.500000	60.366786
504.000000	60.116279
502.500000	59.915912
501.000000	59.740122
499.500000	59.635778
498.000000	59.567840
496.500000	59.464438
495.000000	59.405226
493.500000	59.329871
492.000000	59.331510
490.500000	59.297632
489.000000	59.345520
487.500000	59.447815
486.000000	59.588886
484.500000	59.770038
483.000000	60.115639
481.500000	60.488586
480.000000	60.624783
478.500000	60.459771
477.000000	60.324046
475.500000	60.237003
474.000000	60.156227
472.500000	60.052984
471.000000	59.900421
469.500000	59.723276
468.000000	59.509214
466.500000	59.238628
465.000000	58.947112
463.500000	58.721204
462.000000	58.455633
460.500000	58.261338
459.000000	58.110276
457.500000	57.925427
456.000000	57.777429
454.500000	57.665601
453.000000	57.567437
451.500000	57.456513
450.000000	57.356683
448.500000	57.283466
447.000000	57.172800
445.500000	57.079682
444.000000	57.183820
442.500000	57.337557
441.000000	57.207430
439.500000	57.102500
438.000000	57.017352
436.500000	56.831320
435.000000	56.754614
433.500000	56.638809
432.000000	56.602840
430.500000	56.459984
429.000000	56.352500
427.500000	56.283523
426.000000	56.217600
424.500000	56.131929
423.000000	56.077722
421.500000	55.897229
420.000000	55.827376
418.500000	55.660155
417.000000	55.566342
415.500000	55.575246
414.000000	55.408245
412.500000	55.313260
411.000000	55.170496
409.500000	55.101528
408.000000	54.991774
406.500000	54.888787
405.000000	54.722001
403.500000	54.687271
402.000000	54.519738
400.500000	54.381736
399.000000	54.306759
397.500000	54.155573
396.000000	54.104995
394.500000	53.962584
393.000000	53.862959
391.500000	53.699060
390.000000	53.551104
388.500000	53.463223
387.000000	53.332145
385.500000	53.233046
384.000000	53.029037
382.500000	52.875840
381.000000	52.640419
379.500000	52.399091
378.000000	52.437510
376.500000	52.735719
375.000000	52.781713
373.500000	52.275329
372.000000	51.664637
370.500000	50.919726
369.000000	50.020366
367.500000	49.218388
366.000000	48.018242
364.500000	46.712824
363.000000	45.173876
361.500000	43.350864
360.000000	41.137471
358.500000	38.479247
357.000000	35.536331
355.500000	32.091121
354.000000	28.278609
352.500000	24.167061
351.000000	19.896754
349.500000	15.719188
348.000000	11.745911
346.500000	8.236930
345.000000	5.321566
343.500000	3.121715
342.000000	1.641267
340.500000	0.745177
339.000000	0.293612
337.500000	0.108064
336.000000	0.052057
334.500000	0.037565
333.000000	0.041217
331.500000	0.046841
330.000000	0.045169
328.500000	0.044466
327.000000	0.046727
325.500000	0.048392
324.000000	0.050769
322.500000	0.051277
321.000000	0.058890
319.500000	0.043829
318.000000	0.003485
316.500000	-0.025096
315.000000	-0.027750
313.500000	-0.026190
312.000000	-0.021582
310.500000	-0.022093
309.000000	-0.019488
307.500000	-0.010331
306.000000	-0.002373
304.500000	0.000760
303.000000	-0.000476
301.500000	-0.009146
300.000000	-0.008681
