PE UV       SUBTECH     SPECTRUM    ASCII       PEDS        4.00        
   -1
Sample236.Sample.Raw.asc
21/02/10
10:23:58.00
21/02/10
10:23:58.00
Administrator

300.000000
1
Lambda 850
850L1710193
PerkinElmer UV WinLab 6.4.0.973 / 2.02.06 Lambda 800 UV/VIS, Jan 28 2016 16:58:34

0
0
2
0
0
UV/VIS
1
1
1
RBeamAtt,SBeamAtt,60mm sphere
0
0
0
0
Fix
 
0
0.2
0
0
0
 
 
 
0
 
0
319.2
0
Front
100
 
S:100 R:100
 
0
0
0
 
0
 
 
 
0
 
 
0
0
0
0
0
 
 
 
 
0
0


0
0
#HDR
-1
-1
#GR
nm
%T
1.0
0.0
750.000000
-1.500000
301
8
72.835232
-0.029769
#DATA
750.000000	72.549953
748.500000	72.756287
747.000000	72.755831
745.500000	72.835232
744.000000	72.818612
742.500000	72.717410
741.000000	72.565446
739.500000	72.677638
738.000000	72.833729
736.500000	72.533511
735.000000	72.566259
733.500000	72.627177
732.000000	72.645509
730.500000	72.547137
729.000000	72.535479
727.500000	72.621523
726.000000	72.512509
724.500000	72.430738
723.000000	72.443716
721.500000	72.366156
720.000000	72.372932
718.500000	72.390608
717.000000	72.404913
715.500000	72.404960
714.000000	72.329998
712.500000	72.229147
711.000000	72.270809
709.500000	72.221950
708.000000	72.094401
706.500000	72.145977
705.000000	72.151904
703.500000	72.100392
702.000000	72.073588
700.500000	72.104435
699.000000	72.042990
697.500000	71.993188
696.000000	72.041108
694.500000	72.090486
693.000000	71.991716
691.500000	71.853589
690.000000	71.690714
688.500000	71.863658
687.000000	71.862032
685.500000	71.830523
684.000000	71.887840
682.500000	71.845293
681.000000	71.770240
679.500000	71.765465
678.000000	71.649009
676.500000	71.589836
675.000000	71.607002
673.500000	71.571212
672.000000	71.547512
670.500000	71.520939
669.000000	71.411442
667.500000	71.379638
666.000000	71.342869
664.500000	71.388547
663.000000	71.312202
661.500000	71.224222
660.000000	71.236745
658.500000	71.190221
657.000000	71.055305
655.500000	71.011298
654.000000	70.951503
652.500000	70.967729
651.000000	70.795075
649.500000	70.717206
648.000000	70.668794
646.500000	70.665763
645.000000	70.611404
643.500000	70.540070
642.000000	70.487984
640.500000	70.379839
639.000000	70.332882
637.500000	70.317667
636.000000	70.201989
634.500000	70.081809
633.000000	70.052487
631.500000	70.019579
630.000000	69.887582
628.500000	69.834803
627.000000	69.709740
625.500000	69.654998
624.000000	69.651227
622.500000	69.586765
621.000000	69.485668
619.500000	69.383345
618.000000	69.291491
616.500000	69.225555
615.000000	69.151845
613.500000	69.074167
612.000000	69.003974
610.500000	68.903447
609.000000	68.805231
607.500000	68.730214
606.000000	68.694396
604.500000	68.612297
603.000000	68.549521
601.500000	68.460211
600.000000	68.364665
598.500000	68.291197
597.000000	68.230710
595.500000	68.137234
594.000000	68.003630
592.500000	67.908130
591.000000	67.860272
589.500000	67.750347
588.000000	67.707452
586.500000	67.636791
585.000000	67.508658
583.500000	67.468653
582.000000	67.385893
580.500000	67.283817
579.000000	67.242526
577.500000	67.159431
576.000000	67.085203
574.500000	67.027114
573.000000	66.928059
571.500000	66.850945
570.000000	66.795514
568.500000	66.670392
567.000000	66.584321
565.500000	66.529575
564.000000	66.408327
562.500000	66.383753
561.000000	66.474069
559.500000	66.506516
558.000000	66.486327
556.500000	66.432397
555.000000	66.360368
553.500000	66.309272
552.000000	66.235330
550.500000	66.198142
549.000000	66.145964
547.500000	66.091490
546.000000	66.078404
544.500000	66.034496
543.000000	65.993064
541.500000	65.978135
540.000000	65.947437
538.500000	65.920534
537.000000	65.908394
535.500000	65.890848
534.000000	65.853063
532.500000	65.818377
531.000000	65.791891
529.500000	65.763514
528.000000	65.756037
526.500000	65.727568
525.000000	65.673870
523.500000	65.628164
522.000000	65.545587
520.500000	65.455430
519.000000	65.336304
517.500000	65.209653
516.000000	65.041732
514.500000	64.847286
513.000000	64.603350
511.500000	64.329330
510.000000	64.097554
508.500000	63.804139
507.000000	63.512806
505.500000	63.276490
504.000000	63.055273
502.500000	62.882672
501.000000	62.738959
499.500000	62.641488
498.000000	62.535608
496.500000	62.481398
495.000000	62.449631
493.500000	62.436164
492.000000	62.473297
490.500000	62.522910
489.000000	62.546954
487.500000	62.685431
486.000000	62.827065
484.500000	63.012549
483.000000	63.374812
481.500000	63.801907
480.000000	64.016493
478.500000	63.863536
477.000000	63.676968
475.500000	63.597309
474.000000	63.519740
472.500000	63.403738
471.000000	63.234564
469.500000	63.062585
468.000000	62.873441
466.500000	62.626098
465.000000	62.361626
463.500000	62.043785
462.000000	61.826301
460.500000	61.637972
459.000000	61.495096
457.500000	61.307164
456.000000	61.202191
454.500000	61.056680
453.000000	60.960111
451.500000	60.826653
450.000000	60.765685
448.500000	60.712929
447.000000	60.596097
445.500000	60.584137
444.000000	60.730334
442.500000	60.790217
441.000000	60.719880
439.500000	60.593558
438.000000	60.458443
436.500000	60.376991
435.000000	60.325030
433.500000	60.165173
432.000000	60.108651
430.500000	59.997465
429.000000	59.949337
427.500000	59.853524
426.000000	59.751027
424.500000	59.702211
423.000000	59.560024
421.500000	59.426926
420.000000	59.296287
418.500000	59.239178
417.000000	59.141159
415.500000	59.054862
414.000000	58.919208
412.500000	58.792907
411.000000	58.648458
409.500000	58.617674
408.000000	58.529909
406.500000	58.389263
405.000000	58.280985
403.500000	58.118480
402.000000	58.013830
400.500000	57.976209
399.000000	57.835620
397.500000	57.721892
396.000000	57.590565
394.500000	57.522902
393.000000	57.360572
391.500000	57.361089
390.000000	57.175095
388.500000	57.076449
387.000000	56.926549
385.500000	56.765294
384.000000	56.521516
382.500000	56.392694
381.000000	56.177412
379.500000	55.923062
378.000000	55.989717
376.500000	56.533285
375.000000	56.644973
373.500000	55.934315
372.000000	55.262510
370.500000	54.497223
369.000000	53.706101
367.500000	52.834114
366.000000	51.760167
364.500000	50.318355
363.000000	48.951111
361.500000	47.017283
360.000000	44.874376
358.500000	42.271626
357.000000	39.291677
355.500000	35.883963
354.000000	31.915382
352.500000	27.761667
351.000000	23.240809
349.500000	18.767368
348.000000	14.412702
346.500000	10.415735
345.000000	6.997522
343.500000	4.289401
342.000000	2.366133
340.500000	1.134546
339.000000	0.468004
337.500000	0.175987
336.000000	0.068473
334.500000	0.046554
333.000000	0.035507
331.500000	0.042554
330.000000	0.039003
328.500000	0.044340
327.000000	0.042005
325.500000	0.040906
324.000000	0.051652
322.500000	0.050779
321.000000	0.054098
319.500000	0.043427
318.000000	0.007087
316.500000	-0.028113
315.000000	-0.029769
313.500000	-0.028663
312.000000	-0.028908
310.500000	-0.025840
309.000000	-0.018473
307.500000	-0.018324
306.000000	-0.011696
304.500000	-0.008767
303.000000	-0.008771
301.500000	-0.015087
300.000000	-0.010221
