PE UV       SUBTECH     SPECTRUM    ASCII       PEDS        4.00        
   -1
Sample181.Sample.Raw.asc
21/01/28
12:16:58.00
21/01/28
12:16:58.00
Administrator

300.000000
1
Lambda 850
850L1710193
PerkinElmer UV WinLab 6.4.0.973 / 2.02.06 Lambda 800 UV/VIS, Jan 28 2016 16:58:34

0
0
2
0
0
UV/VIS
1
1
1
RBeamAtt,SBeamAtt,60mm sphere
0
0
0
0
Fix
 
0
0.2
0
0
0
 
 
 
0
 
0
319.2
0
Front
100
 
S:100 R:100
 
0
0
0
 
0
 
 
 
0
 
 
0
0
0
0
0
 
 
 
 
0
0


0
0
#HDR
-1
-1
#GR
nm
%T
1.0
0.0
750.000000
-1.500000
301
8
75.505898
-0.026612
#DATA
750.000000	75.187001
748.500000	75.418459
747.000000	75.332991
745.500000	75.505898
744.000000	75.356514
742.500000	75.316886
741.000000	75.353282
739.500000	75.403771
738.000000	75.294631
736.500000	75.441703
735.000000	75.222912
733.500000	75.257208
732.000000	75.267776
730.500000	75.237408
729.000000	75.193486
727.500000	75.268454
726.000000	75.207582
724.500000	75.304181
723.000000	75.167259
721.500000	75.078728
720.000000	74.999027
718.500000	74.957687
717.000000	75.041203
715.500000	75.113890
714.000000	75.029140
712.500000	75.040971
711.000000	74.922073
709.500000	74.943785
708.000000	74.862258
706.500000	74.880570
705.000000	74.836358
703.500000	74.905222
702.000000	74.901404
700.500000	74.839824
699.000000	74.885059
697.500000	74.782615
696.000000	74.856267
694.500000	74.792493
693.000000	74.779249
691.500000	74.611363
690.000000	74.590350
688.500000	74.814432
687.000000	74.657482
685.500000	74.715511
684.000000	74.678676
682.500000	74.626581
681.000000	74.560937
679.500000	74.578308
678.000000	74.579422
676.500000	74.559684
675.000000	74.550144
673.500000	74.544624
672.000000	74.480014
670.500000	74.396132
669.000000	74.357142
667.500000	74.404352
666.000000	74.363022
664.500000	74.325386
663.000000	74.339540
661.500000	74.230691
660.000000	74.191035
658.500000	74.211034
657.000000	74.149542
655.500000	74.025136
654.000000	74.014717
652.500000	74.067743
651.000000	74.034520
649.500000	73.985280
648.000000	74.026819
646.500000	73.952568
645.000000	73.942198
643.500000	73.836937
642.000000	73.789681
640.500000	73.855649
639.000000	73.820709
637.500000	73.664209
636.000000	73.649899
634.500000	73.617770
633.000000	73.582921
631.500000	73.550181
630.000000	73.454653
628.500000	73.410266
627.000000	73.405828
625.500000	73.355923
624.000000	73.317841
622.500000	73.249181
621.000000	73.226345
619.500000	73.182121
618.000000	73.183445
616.500000	73.080509
615.000000	73.073479
613.500000	73.011545
612.000000	72.919796
610.500000	72.883565
609.000000	72.865507
607.500000	72.805376
606.000000	72.745872
604.500000	72.650479
603.000000	72.600637
601.500000	72.584090
600.000000	72.528541
598.500000	72.419985
597.000000	72.406088
595.500000	72.397274
594.000000	72.315220
592.500000	72.244580
591.000000	72.162281
589.500000	72.113617
588.000000	72.071036
586.500000	72.036671
585.000000	71.997992
583.500000	71.911196
582.000000	71.886528
580.500000	71.843861
579.000000	71.747045
577.500000	71.666678
576.000000	71.591646
574.500000	71.540394
573.000000	71.495954
571.500000	71.414297
570.000000	71.327462
568.500000	71.222673
567.000000	71.155465
565.500000	71.092628
564.000000	70.991861
562.500000	70.942163
561.000000	71.040788
559.500000	71.130144
558.000000	71.086881
556.500000	71.046859
555.000000	70.988281
553.500000	70.914333
552.000000	70.844798
550.500000	70.749630
549.000000	70.682894
547.500000	70.674350
546.000000	70.666473
544.500000	70.610406
543.000000	70.563542
541.500000	70.530291
540.000000	70.487482
538.500000	70.445175
537.000000	70.414332
535.500000	70.363137
534.000000	70.324040
532.500000	70.285168
531.000000	70.217434
529.500000	70.178771
528.000000	70.163667
526.500000	70.109050
525.000000	70.024520
523.500000	69.931907
522.000000	69.836982
520.500000	69.759499
519.000000	69.613650
517.500000	69.426827
516.000000	69.244808
514.500000	69.018250
513.000000	68.768401
511.500000	68.489766
510.000000	68.195402
508.500000	67.905818
507.000000	67.626762
505.500000	67.366701
504.000000	67.168991
502.500000	66.956668
501.000000	66.830853
499.500000	66.723293
498.000000	66.674853
496.500000	66.605998
495.000000	66.572744
493.500000	66.629582
492.000000	66.695701
490.500000	66.731433
489.000000	66.785243
487.500000	66.865349
486.000000	66.970446
484.500000	67.103869
483.000000	67.412045
481.500000	67.722547
480.000000	67.834574
478.500000	67.682607
477.000000	67.423768
475.500000	67.224149
474.000000	67.083668
472.500000	66.970776
471.000000	66.805055
469.500000	66.579990
468.000000	66.317874
466.500000	66.032945
465.000000	65.724877
463.500000	65.411244
462.000000	65.177764
460.500000	64.987165
459.000000	64.779207
457.500000	64.658186
456.000000	64.578918
454.500000	64.452853
453.000000	64.337595
451.500000	64.241077
450.000000	64.196223
448.500000	64.164814
447.000000	64.051186
445.500000	64.034427
444.000000	64.238933
442.500000	64.338560
441.000000	64.188781
439.500000	64.119348
438.000000	64.078923
436.500000	63.940604
435.000000	63.848334
433.500000	63.777934
432.000000	63.657962
430.500000	63.615402
429.000000	63.533824
427.500000	63.459920
426.000000	63.312884
424.500000	63.213155
423.000000	63.171887
421.500000	63.001377
420.000000	62.959964
418.500000	62.905296
417.000000	62.834578
415.500000	62.776185
414.000000	62.565226
412.500000	62.509729
411.000000	62.455996
409.500000	62.432757
408.000000	62.224082
406.500000	62.179819
405.000000	62.070796
403.500000	61.968245
402.000000	61.932034
400.500000	61.802541
399.000000	61.623241
397.500000	61.539867
396.000000	61.423060
394.500000	61.368143
393.000000	61.272726
391.500000	61.161428
390.000000	61.059670
388.500000	60.811239
387.000000	60.711303
385.500000	60.562933
384.000000	60.382383
382.500000	60.125772
381.000000	59.960674
379.500000	59.759458
378.000000	59.551066
376.500000	60.174771
375.000000	60.341055
373.500000	59.623551
372.000000	58.770161
370.500000	57.984850
369.000000	56.873949
367.500000	55.799207
366.000000	54.621489
364.500000	52.974406
363.000000	51.181675
361.500000	48.967376
360.000000	46.291191
358.500000	43.241121
357.000000	39.611192
355.500000	35.659360
354.000000	31.214591
352.500000	26.455840
351.000000	21.597768
349.500000	16.872727
348.000000	12.427474
346.500000	8.641406
345.000000	5.472347
343.500000	3.181938
342.000000	1.605861
340.500000	0.718074
339.000000	0.272766
337.500000	0.100844
336.000000	0.046116
334.500000	0.037624
333.000000	0.047768
331.500000	0.040942
330.000000	0.036948
328.500000	0.041049
327.000000	0.039571
325.500000	0.039362
324.000000	0.041556
322.500000	0.042779
321.000000	0.051816
319.500000	0.048691
318.000000	0.001882
316.500000	-0.023668
315.000000	-0.024052
313.500000	-0.026612
312.000000	-0.022494
310.500000	-0.019787
309.000000	-0.017248
307.500000	-0.013413
306.000000	-0.006723
304.500000	-0.003792
303.000000	-0.005505
301.500000	-0.007893
300.000000	-0.009891
