PE UV       SUBTECH     SPECTRUM    ASCII       PEDS        4.00        
   -1
Sample184.Sample.Raw.asc
21/01/28
12:28:20.00
21/01/28
12:28:20.00
Administrator

300.000000
1
Lambda 850
850L1710193
PerkinElmer UV WinLab 6.4.0.973 / 2.02.06 Lambda 800 UV/VIS, Jan 28 2016 16:58:34

0
0
2
0
0
UV/VIS
1
1
1
RBeamAtt,SBeamAtt,60mm sphere
0
0
0
0
Fix
 
0
0.2
0
0
0
 
 
 
0
 
0
319.2
0
Front
100
 
S:100 R:100
 
0
0
0
 
0
 
 
 
0
 
 
0
0
0
0
0
 
 
 
 
0
0


0
0
#HDR
-1
-1
#GR
nm
%T
1.0
0.0
750.000000
-1.500000
301
8
74.879142
-0.032254
#DATA
750.000000	74.478535
748.500000	74.723822
747.000000	74.724323
745.500000	74.879142
744.000000	74.849145
742.500000	74.738402
741.000000	74.685027
739.500000	74.687473
738.000000	74.514841
736.500000	74.725719
735.000000	74.623009
733.500000	74.536419
732.000000	74.630281
730.500000	74.708267
729.000000	74.608916
727.500000	74.591997
726.000000	74.479383
724.500000	74.569356
723.000000	74.574671
721.500000	74.572643
720.000000	74.376377
718.500000	74.606346
717.000000	74.542298
715.500000	74.567835
714.000000	74.558022
712.500000	74.385277
711.000000	74.407334
709.500000	74.420473
708.000000	74.382510
706.500000	74.503904
705.000000	74.360759
703.500000	74.373503
702.000000	74.380101
700.500000	74.327309
699.000000	74.315764
697.500000	74.312481
696.000000	74.298238
694.500000	74.340099
693.000000	74.230117
691.500000	74.210883
690.000000	74.048290
688.500000	74.252059
687.000000	74.218542
685.500000	74.246754
684.000000	74.240228
682.500000	74.134418
681.000000	74.113643
679.500000	74.117826
678.000000	74.171631
676.500000	74.167054
675.000000	74.188258
673.500000	74.126517
672.000000	74.039351
670.500000	73.979711
669.000000	74.032329
667.500000	73.988611
666.000000	74.006400
664.500000	73.993941
663.000000	73.961067
661.500000	73.856657
660.000000	73.853361
658.500000	73.851112
657.000000	73.868720
655.500000	73.780378
654.000000	73.807877
652.500000	73.832012
651.000000	73.795406
649.500000	73.705304
648.000000	73.807288
646.500000	73.786469
645.000000	73.783838
643.500000	73.717047
642.000000	73.648846
640.500000	73.631343
639.000000	73.640208
637.500000	73.617292
636.000000	73.604611
634.500000	73.578399
633.000000	73.536555
631.500000	73.513119
630.000000	73.487502
628.500000	73.450527
627.000000	73.457555
625.500000	73.434106
624.000000	73.389426
622.500000	73.359074
621.000000	73.365039
619.500000	73.346325
618.000000	73.310271
616.500000	73.254759
615.000000	73.244842
613.500000	73.222167
612.000000	73.180816
610.500000	73.185839
609.000000	73.179538
607.500000	73.169631
606.000000	73.150441
604.500000	73.100685
603.000000	73.084106
601.500000	73.065357
600.000000	72.978144
598.500000	72.930214
597.000000	72.957521
595.500000	72.958279
594.000000	72.933877
592.500000	72.888433
591.000000	72.842880
589.500000	72.838808
588.000000	72.799021
586.500000	72.755764
585.000000	72.769709
583.500000	72.780037
582.000000	72.719286
580.500000	72.668813
579.000000	72.653877
577.500000	72.628216
576.000000	72.588334
574.500000	72.558432
573.000000	72.519866
571.500000	72.486109
570.000000	72.456509
568.500000	72.418113
567.000000	72.365190
565.500000	72.308300
564.000000	72.270554
562.500000	72.259328
561.000000	72.384876
559.500000	72.513174
558.000000	72.491949
556.500000	72.472348
555.000000	72.506669
553.500000	72.487631
552.000000	72.420851
550.500000	72.380775
549.000000	72.367169
547.500000	72.399311
546.000000	72.429563
544.500000	72.406180
543.000000	72.363274
541.500000	72.365302
540.000000	72.372798
538.500000	72.377559
537.000000	72.386809
535.500000	72.380076
534.000000	72.373624
532.500000	72.371514
531.000000	72.356693
529.500000	72.326859
528.000000	72.340963
526.500000	72.359178
525.000000	72.316934
523.500000	72.265126
522.000000	72.217382
520.500000	72.158723
519.000000	72.088538
517.500000	71.967486
516.000000	71.802185
514.500000	71.619090
513.000000	71.416711
511.500000	71.173982
510.000000	70.914168
508.500000	70.671695
507.000000	70.443057
505.500000	70.213346
504.000000	70.054716
502.500000	69.931214
501.000000	69.864838
499.500000	69.825080
498.000000	69.883313
496.500000	69.916443
495.000000	69.954606
493.500000	70.048406
492.000000	70.195237
490.500000	70.281009
489.000000	70.380587
487.500000	70.578574
486.000000	70.719007
484.500000	70.893376
483.000000	71.280897
481.500000	71.645144
480.000000	71.805096
478.500000	71.627068
477.000000	71.380535
475.500000	71.250677
474.000000	71.187797
472.500000	71.098835
471.000000	70.949697
469.500000	70.776779
468.000000	70.550679
466.500000	70.281911
465.000000	70.051167
463.500000	69.786605
462.000000	69.585313
460.500000	69.445690
459.000000	69.275531
457.500000	69.158234
456.000000	69.179338
454.500000	69.125830
453.000000	69.057522
451.500000	68.991644
450.000000	69.002610
448.500000	68.961038
447.000000	68.903549
445.500000	68.950244
444.000000	69.237215
442.500000	69.420768
441.000000	69.279164
439.500000	69.219052
438.000000	69.211922
436.500000	69.092402
435.000000	68.989852
433.500000	68.951649
432.000000	68.900213
430.500000	68.850965
429.000000	68.786904
427.500000	68.733550
426.000000	68.670407
424.500000	68.621752
423.000000	68.504727
421.500000	68.414430
420.000000	68.386382
418.500000	68.274529
417.000000	68.265241
415.500000	68.189754
414.000000	68.038448
412.500000	68.004060
411.000000	67.946962
409.500000	67.905742
408.000000	67.728718
406.500000	67.682082
405.000000	67.566833
403.500000	67.492617
402.000000	67.397760
400.500000	67.339379
399.000000	67.259444
397.500000	67.199301
396.000000	67.049765
394.500000	66.967912
393.000000	66.883741
391.500000	66.718296
390.000000	66.646415
388.500000	66.423750
387.000000	66.345107
385.500000	66.185643
384.000000	66.012934
382.500000	65.815211
381.000000	65.656812
379.500000	65.362234
378.000000	65.238187
376.500000	65.950485
375.000000	66.081640
373.500000	65.229728
372.000000	64.428776
370.500000	63.426753
369.000000	62.439650
367.500000	61.183952
366.000000	59.919633
364.500000	58.163420
363.000000	56.133296
361.500000	53.806339
360.000000	50.914525
358.500000	47.632191
357.000000	43.616103
355.500000	39.330044
354.000000	34.429142
352.500000	29.205937
351.000000	23.899158
349.500000	18.633153
348.000000	13.783381
346.500000	9.507217
345.000000	6.039066
343.500000	3.469913
342.000000	1.747000
340.500000	0.752356
339.000000	0.291185
337.500000	0.098621
336.000000	0.050098
334.500000	0.041053
333.000000	0.040719
331.500000	0.043727
330.000000	0.042703
328.500000	0.045878
327.000000	0.054282
325.500000	0.044387
324.000000	0.039227
322.500000	0.042500
321.000000	0.049491
319.500000	0.048784
318.000000	0.009410
316.500000	-0.019160
315.000000	-0.025837
313.500000	-0.032254
312.000000	-0.030212
310.500000	-0.019976
309.000000	-0.013290
307.500000	-0.013413
306.000000	-0.006534
304.500000	-0.006920
303.000000	-0.005126
301.500000	-0.006181
300.000000	-0.007038
