PE UV       SUBTECH     SPECTRUM    ASCII       PEDS        4.00        
   -1
Sample19.Sample.Raw.asc
21/03/30
12:06:05.00
21/03/30
12:06:05.00
Administrator

300.000000
1
Lambda 850
850L1710193
PerkinElmer UV WinLab 6.4.0.973 / 2.02.06 Lambda 800 UV/VIS, Jan 28 2016 16:58:34

0
0
2
0
0
UV/VIS
1
1
1
RBeamAtt,SBeamAtt,60mm sphere
0
0
0
0
Fix
 
0
0.2
0
0
0
 
 
 
0
 
0
340
0
Front
100
 
S:100 R:100
 
0
0
0
 
0
 
 
 
0
 
 
0
0
0
0
0
 
 
 
 
0
0


0
0
#HDR
-1
-1
#GR
nm
%T
1.0
0.0
750.000000
-1.500000
301
8
74.741330
-0.034012
#DATA
750.000000	74.359616
748.500000	74.427215
747.000000	74.741330
745.500000	74.456613
744.000000	74.536541
742.500000	74.422448
741.000000	74.420081
739.500000	74.427284
738.000000	74.449890
736.500000	74.362015
735.000000	74.346121
733.500000	74.233761
732.000000	74.336354
730.500000	74.345928
729.000000	74.197844
727.500000	74.249757
726.000000	74.263483
724.500000	74.107562
723.000000	74.202579
721.500000	74.253190
720.000000	74.156558
718.500000	74.000548
717.000000	74.102051
715.500000	74.030460
714.000000	74.070386
712.500000	73.990464
711.000000	73.943372
709.500000	73.935730
708.000000	73.910277
706.500000	73.859920
705.000000	73.920511
703.500000	73.788259
702.000000	73.817188
700.500000	73.770735
699.000000	73.832482
697.500000	73.789731
696.000000	73.794597
694.500000	73.709513
693.000000	73.711734
691.500000	73.699966
690.000000	73.481197
688.500000	73.578082
687.000000	73.501531
685.500000	73.505186
684.000000	73.539838
682.500000	73.455435
681.000000	73.413144
679.500000	73.411479
678.000000	73.409180
676.500000	73.277710
675.000000	73.235709
673.500000	73.187087
672.000000	73.208100
670.500000	73.151510
669.000000	73.097796
667.500000	73.073146
666.000000	73.025980
664.500000	72.868961
663.000000	72.867552
661.500000	72.832784
660.000000	72.797446
658.500000	72.688307
657.000000	72.647036
655.500000	72.583688
654.000000	72.542933
652.500000	72.481004
651.000000	72.412281
649.500000	72.300076
648.000000	72.293706
646.500000	72.224920
645.000000	72.129294
643.500000	72.072683
642.000000	71.992168
640.500000	71.962119
639.000000	71.865369
637.500000	71.774814
636.000000	71.629915
634.500000	71.563486
633.000000	71.481049
631.500000	71.415184
630.000000	71.299031
628.500000	71.230564
627.000000	71.162466
625.500000	71.054824
624.000000	70.937468
622.500000	70.856409
621.000000	70.756212
619.500000	70.689833
618.000000	70.577223
616.500000	70.478080
615.000000	70.418114
613.500000	70.286678
612.000000	70.173686
610.500000	70.077596
609.000000	69.996360
607.500000	69.871783
606.000000	69.793249
604.500000	69.662293
603.000000	69.546671
601.500000	69.444009
600.000000	69.325498
598.500000	69.214368
597.000000	69.130910
595.500000	69.041045
594.000000	68.917208
592.500000	68.770256
591.000000	68.693116
589.500000	68.634996
588.000000	68.546436
586.500000	68.439462
585.000000	68.341646
583.500000	68.233169
582.000000	68.096329
580.500000	67.982877
579.000000	67.905485
577.500000	67.802034
576.000000	67.681329
574.500000	67.549232
573.000000	67.401148
571.500000	67.279296
570.000000	67.196087
568.500000	67.077772
567.000000	66.941030
565.500000	66.833814
564.000000	66.695371
562.500000	66.589708
561.000000	66.638667
559.500000	66.675449
558.000000	66.602907
556.500000	66.497823
555.000000	66.389077
553.500000	66.297684
552.000000	66.186837
550.500000	66.114562
549.000000	66.021148
547.500000	65.917832
546.000000	65.845818
544.500000	65.771180
543.000000	65.717535
541.500000	65.669325
540.000000	65.572781
538.500000	65.466770
537.000000	65.406727
535.500000	65.344643
534.000000	65.289081
532.500000	65.233164
531.000000	65.151948
529.500000	65.066247
528.000000	64.999141
526.500000	64.932159
525.000000	64.836916
523.500000	64.722374
522.000000	64.613901
520.500000	64.489426
519.000000	64.325567
517.500000	64.147281
516.000000	63.951908
514.500000	63.729204
513.000000	63.440831
511.500000	63.135306
510.000000	62.813787
508.500000	62.493907
507.000000	62.189448
505.500000	61.876619
504.000000	61.609977
502.500000	61.379104
501.000000	61.208319
499.500000	61.028924
498.000000	60.912177
496.500000	60.806478
495.000000	60.735112
493.500000	60.670624
492.000000	60.665687
490.500000	60.635575
489.000000	60.654001
487.500000	60.714705
486.000000	60.777264
484.500000	60.892786
483.000000	61.205900
481.500000	61.565079
480.000000	61.719743
478.500000	61.507503
477.000000	61.245963
475.500000	61.078972
474.000000	61.032667
472.500000	60.892206
471.000000	60.671181
469.500000	60.443291
468.000000	60.169374
466.500000	59.898077
465.000000	59.575067
463.500000	59.346452
462.000000	59.021564
460.500000	58.795639
459.000000	58.606069
457.500000	58.436051
456.000000	58.278352
454.500000	58.117005
453.000000	57.975071
451.500000	57.888411
450.000000	57.759982
448.500000	57.695364
447.000000	57.625679
445.500000	57.537090
444.000000	57.722372
442.500000	57.782817
441.000000	57.693811
439.500000	57.486336
438.000000	57.450060
436.500000	57.323718
435.000000	57.226345
433.500000	57.098935
432.000000	56.984610
430.500000	56.907310
429.000000	56.826588
427.500000	56.723858
426.000000	56.654479
424.500000	56.599102
423.000000	56.443479
421.500000	56.391059
420.000000	56.331541
418.500000	56.209913
417.000000	56.122070
415.500000	56.029232
414.000000	55.916061
412.500000	55.794696
411.000000	55.828453
409.500000	55.689072
408.000000	55.554486
406.500000	55.468684
405.000000	55.311716
403.500000	55.286654
402.000000	55.211197
400.500000	55.116304
399.000000	54.989380
397.500000	54.965129
396.000000	54.853848
394.500000	54.710862
393.000000	54.687946
391.500000	54.580828
390.000000	54.490815
388.500000	54.435922
387.000000	54.223258
385.500000	54.161893
384.000000	53.924265
382.500000	53.740186
381.000000	53.713874
379.500000	53.480092
378.000000	53.480278
376.500000	53.928720
375.000000	54.045360
373.500000	53.454415
372.000000	52.782592
370.500000	52.088647
369.000000	51.231991
367.500000	50.197127
366.000000	49.112652
364.500000	47.745844
363.000000	46.103841
361.500000	44.216558
360.000000	41.922403
358.500000	39.064446
357.000000	35.873327
355.500000	32.289281
354.000000	28.241045
352.500000	23.947013
351.000000	19.521726
349.500000	15.310644
348.000000	11.282965
346.500000	7.779702
345.000000	4.934636
343.500000	2.811946
342.000000	1.442546
340.500000	0.639497
339.000000	0.197589
337.500000	0.032278
336.000000	-0.018853
334.500000	-0.034012
333.000000	-0.024667
331.500000	-0.028613
330.000000	-0.020517
328.500000	-0.018169
327.000000	-0.024806
325.500000	-0.023076
324.000000	-0.026541
322.500000	-0.026052
321.000000	-0.024601
319.500000	-0.022382
318.000000	0.004237
316.500000	-0.021065
315.000000	-0.027093
313.500000	-0.025154
312.000000	-0.027311
310.500000	-0.023387
309.000000	-0.020485
307.500000	-0.014945
306.000000	-0.005873
304.500000	-0.002851
303.000000	-0.008650
301.500000	-0.011131
300.000000	-0.013516
