PE UV       SUBTECH     SPECTRUM    ASCII       PEDS        4.00        
   -1
Sample185.Sample.Raw.asc
21/01/28
12:31:49.00
21/01/28
12:31:49.00
Administrator

300.000000
1
Lambda 850
850L1710193
PerkinElmer UV WinLab 6.4.0.973 / 2.02.06 Lambda 800 UV/VIS, Jan 28 2016 16:58:34

0
0
2
0
0
UV/VIS
1
1
1
RBeamAtt,SBeamAtt,60mm sphere
0
0
0
0
Fix
 
0
0.2
0
0
0
 
 
 
0
 
0
319.2
0
Front
100
 
S:100 R:100
 
0
0
0
 
0
 
 
 
0
 
 
0
0
0
0
0
 
 
 
 
0
0


0
0
#HDR
-1
-1
#GR
nm
%T
1.0
0.0
750.000000
-1.500000
301
8
73.528742
-0.031596
#DATA
750.000000	73.114885
748.500000	73.480376
747.000000	73.487976
745.500000	73.503219
744.000000	73.528742
742.500000	73.437824
741.000000	73.378551
739.500000	73.263198
738.000000	73.224743
736.500000	73.359390
735.000000	73.201159
733.500000	73.193879
732.000000	73.322727
730.500000	73.338550
729.000000	73.284924
727.500000	73.265201
726.000000	73.245399
724.500000	73.298392
723.000000	73.171112
721.500000	73.110132
720.000000	73.009565
718.500000	73.153530
717.000000	73.205192
715.500000	73.253072
714.000000	73.186071
712.500000	73.057688
711.000000	73.130054
709.500000	73.126196
708.000000	73.029792
706.500000	73.086803
705.000000	72.953995
703.500000	73.047428
702.000000	73.126183
700.500000	73.063291
699.000000	73.053928
697.500000	72.976071
696.000000	72.920476
694.500000	72.989616
693.000000	72.905732
691.500000	72.843712
690.000000	72.833109
688.500000	72.975240
687.000000	72.866958
685.500000	72.918758
684.000000	72.909492
682.500000	72.850652
681.000000	72.828022
679.500000	72.840176
678.000000	72.827192
676.500000	72.780225
675.000000	72.802627
673.500000	72.824445
672.000000	72.709159
670.500000	72.596888
669.000000	72.657102
667.500000	72.659651
666.000000	72.646737
664.500000	72.704868
663.000000	72.681223
661.500000	72.571513
660.000000	72.563007
658.500000	72.517604
657.000000	72.529760
655.500000	72.462414
654.000000	72.452163
652.500000	72.502395
651.000000	72.487352
649.500000	72.406992
648.000000	72.448304
646.500000	72.391538
645.000000	72.414645
643.500000	72.329879
642.000000	72.229557
640.500000	72.276947
639.000000	72.294188
637.500000	72.262056
636.000000	72.215397
634.500000	72.206321
633.000000	72.182129
631.500000	72.166867
630.000000	72.116485
628.500000	72.030852
627.000000	72.049474
625.500000	72.013063
624.000000	71.956496
622.500000	71.919503
621.000000	71.899735
619.500000	71.914822
618.000000	71.921694
616.500000	71.842789
615.000000	71.814640
613.500000	71.765463
612.000000	71.715444
610.500000	71.703746
609.000000	71.684036
607.500000	71.653729
606.000000	71.614085
604.500000	71.549130
603.000000	71.554921
601.500000	71.545800
600.000000	71.481638
598.500000	71.448025
597.000000	71.497705
595.500000	71.473436
594.000000	71.419963
592.500000	71.369217
591.000000	71.309243
589.500000	71.273957
588.000000	71.232945
586.500000	71.196656
585.000000	71.184591
583.500000	71.187643
582.000000	71.151445
580.500000	71.104863
579.000000	71.041226
577.500000	70.969313
576.000000	70.963033
574.500000	70.937625
573.000000	70.896348
571.500000	70.824759
570.000000	70.774198
568.500000	70.724703
567.000000	70.656912
565.500000	70.604941
564.000000	70.560545
562.500000	70.532785
561.000000	70.622724
559.500000	70.738979
558.000000	70.703748
556.500000	70.661466
555.000000	70.682473
553.500000	70.648745
552.000000	70.547447
550.500000	70.495499
549.000000	70.481899
547.500000	70.493162
546.000000	70.510561
544.500000	70.457827
543.000000	70.392607
541.500000	70.356801
540.000000	70.319436
538.500000	70.317642
537.000000	70.315935
535.500000	70.272992
534.000000	70.235620
532.500000	70.185869
531.000000	70.171542
529.500000	70.143360
528.000000	70.099927
526.500000	70.078325
525.000000	70.042689
523.500000	69.968654
522.000000	69.898014
520.500000	69.818734
519.000000	69.719990
517.500000	69.585133
516.000000	69.426988
514.500000	69.244927
513.000000	69.044566
511.500000	68.830033
510.000000	68.604175
508.500000	68.386438
507.000000	68.176496
505.500000	67.992877
504.000000	67.905470
502.500000	67.827664
501.000000	67.842484
499.500000	67.874524
498.000000	67.977504
496.500000	68.064116
495.000000	68.208795
493.500000	68.382849
492.000000	68.550506
490.500000	68.666629
489.000000	68.789869
487.500000	68.931543
486.000000	69.036666
484.500000	69.121664
483.000000	69.444539
481.500000	69.737127
480.000000	69.759635
478.500000	69.505063
477.000000	69.203837
475.500000	69.050232
474.000000	68.931252
472.500000	68.781580
471.000000	68.629980
469.500000	68.393778
468.000000	68.187027
466.500000	67.957950
465.000000	67.675723
463.500000	67.470188
462.000000	67.275369
460.500000	67.174697
459.000000	67.068220
457.500000	67.024530
456.000000	67.040514
454.500000	67.055477
453.000000	67.017988
451.500000	67.036283
450.000000	67.082625
448.500000	67.131440
447.000000	67.078246
445.500000	67.157006
444.000000	67.425234
442.500000	67.566937
441.000000	67.442302
439.500000	67.343139
438.000000	67.269349
436.500000	67.196548
435.000000	67.186032
433.500000	67.117004
432.000000	66.972808
430.500000	66.958210
429.000000	66.853013
427.500000	66.821676
426.000000	66.724578
424.500000	66.654851
423.000000	66.574024
421.500000	66.452738
420.000000	66.431714
418.500000	66.336660
417.000000	66.248234
415.500000	66.195362
414.000000	65.952740
412.500000	65.983920
411.000000	65.882377
409.500000	65.860125
408.000000	65.693486
406.500000	65.622994
405.000000	65.494068
403.500000	65.357409
402.000000	65.296714
400.500000	65.168489
399.000000	65.080295
397.500000	64.994759
396.000000	64.783760
394.500000	64.676981
393.000000	64.528749
391.500000	64.406613
390.000000	64.225231
388.500000	64.047002
387.000000	63.968917
385.500000	63.726132
384.000000	63.421449
382.500000	63.153491
381.000000	62.827382
379.500000	62.503868
378.000000	62.157989
376.500000	62.582116
375.000000	62.829910
373.500000	61.733387
372.000000	60.613753
370.500000	59.429840
369.000000	58.000029
367.500000	56.267026
366.000000	54.537358
364.500000	52.212053
363.000000	49.494090
361.500000	46.272004
360.000000	42.665770
358.500000	38.422389
357.000000	33.753338
355.500000	28.734856
354.000000	23.527698
352.500000	18.239882
351.000000	13.528777
349.500000	9.410367
348.000000	6.123543
346.500000	3.736649
345.000000	2.125173
343.500000	1.130016
342.000000	0.557162
340.500000	0.255406
339.000000	0.108292
337.500000	0.059265
336.000000	0.040097
334.500000	0.036234
333.000000	0.038864
331.500000	0.039363
330.000000	0.040847
328.500000	0.046900
327.000000	0.047019
325.500000	0.040944
324.000000	0.050594
322.500000	0.053753
321.000000	0.048188
319.500000	0.049437
318.000000	0.004141
316.500000	-0.023105
315.000000	-0.030159
313.500000	-0.031596
312.000000	-0.026541
310.500000	-0.026666
309.000000	-0.019699
307.500000	-0.013602
306.000000	-0.006534
304.500000	-0.004076
303.000000	-0.008353
301.500000	-0.013503
300.000000	-0.012934
