PE UV       SUBTECH     SPECTRUM    ASCII       PEDS        4.00        
   -1
Sample147.Sample.Raw.asc
21/01/19
15:25:08.00
21/01/19
15:25:08.00
Administrator

300.000000
1
Lambda 850
850L1710193
PerkinElmer UV WinLab 6.4.0.973 / 2.02.06 Lambda 800 UV/VIS, Jan 28 2016 16:58:34

0
0
2
0
0
UV/VIS
1
1
1
RBeamAtt,SBeamAtt,60mm sphere
0
0
0
0
Fix
 
0
0.2
0
0
0
 
 
 
0
 
0
319.2
0
Front
100
 
S:100 R:100
 
0
0
0
 
0
 
 
 
0
 
 
0
0
0
0
0
 
 
 
 
0
0


0
0
#HDR
-1
-1
#GR
nm
%T
1.0
0.0
750.000000
-1.500000
301
8
74.269069
-0.024936
#DATA
750.000000	73.934431
748.500000	74.208628
747.000000	74.119691
745.500000	74.148720
744.000000	74.269069
742.500000	74.212195
741.000000	74.185800
739.500000	74.204920
738.000000	74.136114
736.500000	74.107133
735.000000	74.094895
733.500000	74.178123
732.000000	74.074835
730.500000	74.125010
729.000000	74.212741
727.500000	73.950209
726.000000	74.043048
724.500000	74.102489
723.000000	74.121689
721.500000	74.055251
720.000000	74.007963
718.500000	73.983951
717.000000	73.998335
715.500000	73.906854
714.000000	73.926326
712.500000	73.960906
711.000000	73.767757
709.500000	73.964461
708.000000	73.881711
706.500000	73.942553
705.000000	73.918441
703.500000	73.948833
702.000000	73.900947
700.500000	73.855712
699.000000	73.890564
697.500000	73.860023
696.000000	73.832676
694.500000	73.865440
693.000000	73.861855
691.500000	73.759036
690.000000	73.597357
688.500000	73.816615
687.000000	73.802529
685.500000	73.835108
684.000000	73.760282
682.500000	73.842172
681.000000	73.782475
679.500000	73.743717
678.000000	73.744772
676.500000	73.721030
675.000000	73.773965
673.500000	73.682616
672.000000	73.700476
670.500000	73.680451
669.000000	73.651461
667.500000	73.612209
666.000000	73.598451
664.500000	73.556093
663.000000	73.605274
661.500000	73.564075
660.000000	73.627320
658.500000	73.575136
657.000000	73.548772
655.500000	73.524021
654.000000	73.510436
652.500000	73.496993
651.000000	73.467219
649.500000	73.423532
648.000000	73.426469
646.500000	73.422324
645.000000	73.423026
643.500000	73.436620
642.000000	73.382025
640.500000	73.397692
639.000000	73.314216
637.500000	73.331607
636.000000	73.384580
634.500000	73.324491
633.000000	73.270534
631.500000	73.270801
630.000000	73.280618
628.500000	73.287593
627.000000	73.278853
625.500000	73.197716
624.000000	73.199186
622.500000	73.142488
621.000000	73.169280
619.500000	73.173193
618.000000	73.144492
616.500000	73.075142
615.000000	73.065348
613.500000	73.067478
612.000000	73.069467
610.500000	73.031736
609.000000	73.019325
607.500000	72.982951
606.000000	72.964763
604.500000	72.941237
603.000000	72.890222
601.500000	72.909805
600.000000	72.913808
598.500000	72.884483
597.000000	72.864471
595.500000	72.835086
594.000000	72.802987
592.500000	72.783994
591.000000	72.764343
589.500000	72.760642
588.000000	72.728565
586.500000	72.674729
585.000000	72.672902
583.500000	72.675939
582.000000	72.664811
580.500000	72.681037
579.000000	72.616528
577.500000	72.578257
576.000000	72.580581
574.500000	72.538189
573.000000	72.493446
571.500000	72.447643
570.000000	72.414648
568.500000	72.381483
567.000000	72.351900
565.500000	72.301268
564.000000	72.236790
562.500000	72.224218
561.000000	72.378470
559.500000	72.469451
558.000000	72.443742
556.500000	72.423170
555.000000	72.393113
553.500000	72.371938
552.000000	72.346653
550.500000	72.343669
549.000000	72.357428
547.500000	72.336017
546.000000	72.264015
544.500000	72.246921
543.000000	72.265887
541.500000	72.253778
540.000000	72.234472
538.500000	72.191564
537.000000	72.162406
535.500000	72.172861
534.000000	72.156981
532.500000	72.137844
531.000000	72.162323
529.500000	72.119481
528.000000	72.082605
526.500000	72.055862
525.000000	71.992150
523.500000	71.926657
522.000000	71.875778
520.500000	71.804719
519.000000	71.686601
517.500000	71.563940
516.000000	71.401522
514.500000	71.201632
513.000000	71.010052
511.500000	70.774227
510.000000	70.533152
508.500000	70.291341
507.000000	70.094631
505.500000	69.918293
504.000000	69.789131
502.500000	69.740625
501.000000	69.731260
499.500000	69.764342
498.000000	69.829442
496.500000	69.966135
495.000000	70.110790
493.500000	70.260763
492.000000	70.438204
490.500000	70.490479
489.000000	70.632874
487.500000	70.783106
486.000000	70.933721
484.500000	71.118334
483.000000	71.408430
481.500000	71.684834
480.000000	71.735898
478.500000	71.434393
477.000000	71.142972
475.500000	71.030640
474.000000	70.898988
472.500000	70.751205
471.000000	70.558587
469.500000	70.339067
468.000000	70.101198
466.500000	69.908321
465.000000	69.601241
463.500000	69.357895
462.000000	69.164915
460.500000	69.004161
459.000000	68.924668
457.500000	68.895202
456.000000	68.877722
454.500000	68.867807
453.000000	68.903656
451.500000	68.907771
450.000000	68.954241
448.500000	68.981189
447.000000	68.956139
445.500000	69.026901
444.000000	69.199207
442.500000	69.393588
441.000000	69.319684
439.500000	69.130034
438.000000	69.102724
436.500000	69.055365
435.000000	68.996507
433.500000	68.908358
432.000000	68.842314
430.500000	68.788606
429.000000	68.641923
427.500000	68.600453
426.000000	68.538335
424.500000	68.439941
423.000000	68.341962
421.500000	68.288097
420.000000	68.182643
418.500000	68.063299
417.000000	68.048412
415.500000	67.895371
414.000000	67.796919
412.500000	67.740543
411.000000	67.626027
409.500000	67.580487
408.000000	67.445447
406.500000	67.323043
405.000000	67.208974
403.500000	67.017683
402.000000	66.989835
400.500000	66.876751
399.000000	66.712501
397.500000	66.555595
396.000000	66.465041
394.500000	66.302145
393.000000	66.102996
391.500000	65.940966
390.000000	65.781237
388.500000	65.530101
387.000000	65.322031
385.500000	65.180650
384.000000	64.903523
382.500000	64.601223
381.000000	64.099535
379.500000	63.824052
378.000000	63.675296
376.500000	63.984584
375.000000	63.868818
373.500000	63.147177
372.000000	61.813950
370.500000	60.746687
369.000000	59.268261
367.500000	57.625774
366.000000	55.606212
364.500000	53.249210
363.000000	50.568471
361.500000	47.418132
360.000000	43.594253
358.500000	39.366998
357.000000	34.572678
355.500000	29.345717
354.000000	24.077506
352.500000	18.749620
351.000000	13.838762
349.500000	9.620853
348.000000	6.315397
346.500000	3.855585
345.000000	2.209475
343.500000	1.199562
342.000000	0.591553
340.500000	0.271339
339.000000	0.121247
337.500000	0.067888
336.000000	0.055272
334.500000	0.048920
333.000000	0.057965
331.500000	0.060293
330.000000	0.062104
328.500000	0.068958
327.000000	0.064696
325.500000	0.066056
324.000000	0.063397
322.500000	0.071321
321.000000	0.068864
319.500000	0.060899
318.000000	0.012712
316.500000	-0.018440
315.000000	-0.024936
313.500000	-0.020995
312.000000	-0.021587
310.500000	-0.011413
309.000000	-0.009635
307.500000	-0.009270
306.000000	-0.003035
304.500000	0.003135
303.000000	-0.002571
301.500000	-0.005903
300.000000	-0.004193
